subject,trial,face,trial_type,rt,HandScored_SCR,raw_scr,scr,response,phase,status
1,1,0.77,,703,,0.976,0.987927123,2,1,
1,2,1,,529,,0.154,0.392428337,2,1,
1,3,0.11,,682,,0.656,0.809938269,1,1,
1,4,0.33,,595,,0.505,0.71063352,2,1,
1,5,0.55,,595,,0.032,0.178885438,2,1,
1,6,0.77,,609,,0.492,0.701427117,2,1,
1,7,0.11,,584,,0.544,0.737563557,1,1,
1,8,1,,481,,0.721,0.849117189,2,1,
1,9,0.77,,669,,0.312,0.558569602,2,1,
1,10,0.33,,1112,,0.065,0.254950976,2,1,
1,11,0.33,,1099,,0.021,0.144913767,2,1,
1,12,0.55,CSUS,747,,0.131,0.361939221,2,1,
1,13,0.11,,881,,0.521,0.721803297,1,1,
1,14,0.55,,607,,0.895,0.946044396,2,1,
1,15,1,,629,,0.184,0.428952212,2,1,
1,16,0.11,,685,,0.401,0.633245608,1,2,
1,17,0.33,,993,,0.851,0.922496612,2,2,
1,18,0.55,CSUS,554,,0.431,0.656505902,2,2,
1,19,0.77,,564,,0.064,0.252982213,2,2,
1,20,1,,529,,0.288,0.536656315,2,2,
1,21,0.11,,731,,0.396,0.629285309,1,2,
1,22,0.33,,737,,0.018,0.134164079,2,2,
1,23,0.55,,632,,0.03,0.173205081,2,2,
1,24,0.77,,639,,0.013,0.114017543,2,2,
1,25,1,,687,,0.015,0.122474487,2,2,
1,26,0.77,,904,,0.015,0.122474487,2,2,
1,27,1,,651,,0.212,0.460434577,2,2,
1,28,0.33,,627,,0.108,0.328633535,2,2,
1,29,0.55,CSUS,535,,0.013,0.114017543,2,2,
1,30,0.11,,992,,0.013,0.114017543,1,3,
1,31,0.11,,832,,0.067,0.258843582,1,3,
1,32,0.55,,794,,0.035,0.187082869,2,3,
1,33,0.33,,963,,0.051,0.225831796,2,2,
1,34,1,,679,,0.128,0.357770876,2,3,
1,35,0.77,,597,,0.138,0.371483512,2,3,
1,36,1,,590,,0.112,0.334664011,2,3,
1,37,0.11,,643,,0.187,0.432434966,1,3,
1,38,0.55,,614,,0.523,0.723187389,2,3,
1,39,0.77,,765,,0.329,0.573585216,2,3,
1,40,0.33,,907,,0.065,0.254950976,2,3,
1,41,1,,594,,0.447,0.668580586,2,3,
1,42,0.11,,704,,0.138,0.371483512,1,3,
1,43,0.55,,575,,0.073,0.270185122,2,3,
1,44,0.33,,1072,,0.041,0.202484567,2,3,
1,45,0.77,,641,,0.247,0.496990946,2,3,
2,1,0.77,,1097,,0.088,0.296647939,2,1,
2,2,1,,701,,0.207,0.454972527,2,1,
2,3,0.11,,666,,0.024,0.154919334,1,1,
2,4,0.33,,895,,0.352,0.593295879,2,1,
2,5,0.55,,799,,0.025,0.158113883,2,1,
2,6,0.77,,801,,0.012,0.109544512,2,1,
2,7,0.33,,1666,,0.032,0.178885438,1,1,
2,8,0.55,CSUS,896,,0.013,0.114017543,2,1,
2,9,0.11,,875,,0.032,0.178885438,1,1,
2,10,1,,732,,0.028,0.167332005,2,1,
2,11,1,,975,,0.018,0.134164079,2,1,
2,12,0.33,,1138,,0.019,0.137840488,1,2,
2,13,0.77,,702,,0.019,0.137840488,1,1,
2,14,0.55,,1174,,0.035,0.187082869,2,1,
2,15,0.11,,1058,,0.019,0.137840488,1,1,
2,16,0.11,,1381,,0.012,0.109544512,1,2,
2,17,0.33,,1458,,0.016,0.126491106,1,2,
2,18,0.55,CSUS,1468,,0.016,0.126491106,1,2,
2,19,0.77,,1513,,0.015,0.122474487,2,2,
2,20,1,,798,,0.028,0.167332005,2,2,
2,21,0.11,,748,,0.021,0.144913767,1,1,
2,22,0.33,,1184,,0.019,0.137840488,1,2,
2,23,0.55,,1347,,0.315,0.561248608,1,2,
2,24,0.77,,1519,,0.021,0.144913767,2,2,
2,25,1,,1308,,0.027,0.164316767,2,2,
2,26,1,,1259,,0.009,0.09486833,2,2,
2,27,0.33,,1163,,0.012,0.109544512,1,3,
2,28,0.77,,1595,,0.013,0.114017543,1,2,
2,29,0.11,,803,,0.032,0.178885438,1,3,
2,30,0.55,CSUS,1306,,0.015,0.122474487,1,2,
2,31,0.11,,743,,0.096,0.309838668,1,2,
2,32,0.77,,1607,,0.039,0.197484177,2,3,
2,33,1,,1115,,0.016,0.126491106,2,3,
2,34,0.33,,1039,,0.022,0.14832397,1,3,
2,35,0.55,,1591,,0.01,0.1,2,2,
2,36,0.55,,2212,,0.012,0.109544512,1,3,
2,37,0.77,,1724,,0.016,0.126491106,1,3,
2,38,1,,1106,,0.01,0.1,2,3,
2,39,0.11,,909,,0.012,0.109544512,2,3,
2,40,0.55,,1603,,0.013,0.114017543,1,3,
2,41,0.11,,696,,0.013,0.114017543,1,3,
2,42,0.33,,1204,,0.013,0.114017543,1,3,
2,43,1,,951,,0.01,0.1,2,3,
2,44,0.77,,1691,,0.012,0.109544512,2,3,
2,45,0.33,,951,,0.013,0.114017543,1,3,
4,1,1,CS,668,,1.965,1.401784577,2,1,
4,2,0.11,CS,549,,0.08,0.282842712,1,1,
4,3,0.55,CS,450,,0.184,0.428952212,2,1,
4,4,0.33,CS,846,,0.079,0.281069386,2,1,
4,5,0.77,CS,520,,0.03,0.173205081,2,1,
4,6,0.11,CS,458,,0.7,0.836660027,1,1,
4,7,0.33,CS,443,,0.018,0.134164079,2,1,
4,8,0.55,CS,607,,0.021,0.144913767,2,1,
4,9,1,CS,601,,0.561,0.748999332,2,1,
4,10,0.55,CSUS,485,,0.717,0.846758525,2,1,
4,11,0.11,CS,718,,0.018,0.134164079,1,1,
4,12,1,CS,500,,0.042,0.204939015,2,1,
4,13,0.33,CS,947,,0.015,0.122474487,2,1,
4,14,0.77,CS,605,,0.016,0.126491106,2,1,
4,15,0.77,CS,534,,0.015,0.122474487,2,1,
4,16,0.11,CS,393,,1.174,1.083512806,1,2,
4,17,0.33,CS,363,,0.364,0.603324125,2,2,
4,18,0.55,CSUS,564,,0.041,0.202484567,2,2,
4,19,0.77,CS,441,,0.413,0.642650761,2,2,
4,20,1,CS,484,,0.027,0.164316767,2,2,
4,21,0.11,CS,440,,1.184,1.088117641,2,2,
4,22,0.33,CS,845,,0.025,0.158113883,2,2,
4,23,0.55,CS,546,,0.019,0.137840488,2,2,
4,24,0.77,CS,590,,0.016,0.126491106,2,2,
4,25,1,CS,478,,0.013,0.114017543,2,2,
4,26,0.77,CS,450,,0.022,0.14832397,2,2,
4,27,0.55,CSUS,516,,0.015,0.122474487,2,2,
4,28,0.11,CS,453,,0.045,0.212132034,1,2,
4,29,0.33,CS,586,,0.013,0.114017543,2,3,
4,30,1,CS,451,,0.697,0.834865259,2,3,
4,31,0.33,CS1,538,,0.012,0.109544512,2,3,
4,32,1,CS1,540,,0.022,0.14832397,2,2,
4,33,0.55,CS1,504,,0.015,0.122474487,2,2,
4,34,0.11,CS1,509,,0.115,0.339116499,1,3,
4,35,0.77,CS1,481,,0.106,0.325576412,2,3,
4,36,0.77,CS,489,,0.012,0.109544512,2,3,
4,37,0.11,CS,479,,0.012,0.109544512,1,3,
4,38,1,CS,459,,0.045,0.212132034,2,3,
4,39,0.33,CS,827,,0.01,0.1,2,3,
4,40,1,CS,543,,0.1,0.316227766,2,3,
4,41,0.55,CS,561,,0.021,0.144913767,2,3,
4,42,0.55,CS,479,,0.01,0.1,2,3,
4,43,0.77,CS,503,,0.009,0.09486833,2,3,
4,44,0.33,CS,1083,,0.012,0.109544512,2,3,
4,45,0.11,CS,559,,0.009,0.09486833,1,3,
5,1,1,CS,884,,0.012,0.109544512,2,1,
5,2,0.33,CS,2524,,0.01,0.1,1,1,
5,3,0.55,CS,1402,,0.012,0.109544512,2,1,
5,4,0.77,CS,874,,0.009,0.09486833,2,1,
5,5,0.11,CS,1381,,0.012,0.109544512,1,1,
5,6,0.55,CSUS,1369,,0.012,0.109544512,2,1,
5,7,0.55,CS,753,,0.122,0.349284984,2,1,
5,8,0.33,CS,1100,,0.032,0.178885438,1,1,
5,9,0.11,CS,759,,0.022,0.14832397,1,1,
5,10,0.33,CS,2758,,0.012,0.109544512,2,1,
5,11,1,CS,1124,,0.68,0.824621125,2,1,
5,12,0.77,CS,939,,0.032,0.178885438,2,1,
5,13,1,CS,1031,,0.027,0.164316767,2,1,
5,14,0.77,CS,893,,0.01,0.1,2,1,
5,15,0.11,CS,843,,0.01,0.1,1,1,
5,16,0.11,CS,839,,0.012,0.109544512,1,2,
5,17,0.33,CS,1860,,0.013,0.114017543,1,2,
5,18,0.55,CSUS,893,,0.025,0.158113883,2,2,
5,19,0.77,CS,786,,0.093,0.304959014,2,2,
5,20,1,CS,875,,0.012,0.109544512,2,2,
5,21,0.11,CS,917,,0.024,0.154919334,1,2,
5,22,0.33,CS,1157,,0.012,0.109544512,1,2,
5,23,0.55,CS,835,,0.013,0.114017543,2,2,
5,24,0.77,CS,1169,,0.013,0.114017543,2,2,
5,25,1,CS,1837,,0.009,0.09486833,2,2,
5,26,0.55,CSUS,1755,,0.009,0.09486833,2,2,
5,27,1,CS,1094,,0.012,0.109544512,2,2,
5,28,0.77,CS,1281,,0.013,0.114017543,2,3,
5,29,0.11,CS,758,,0.015,0.122474487,1,2,
5,30,0.33,CS,1728,,0.022,0.14832397,1,2,
5,31,0.33,CS1,2080,,0.019,0.137840488,1,2,
5,32,0.55,CS1,1217,,0.021,0.144913767,2,3,
5,33,0.11,CS1,817,,0.019,0.137840488,1,3,
5,34,1,CS1,836,,0.013,0.114017543,2,3,
5,35,0.77,CS1,983,,0.013,0.114017543,2,3,
5,36,0.77,CS,1020,,0.009,0.09486833,2,3,
5,37,0.33,CS,1749,,0.009,0.09486833,1,3,
5,38,1,CS,759,,0.012,0.109544512,2,3,
5,39,0.55,CS,1582,,0.012,0.109544512,2,3,
5,40,0.11,CS,872,,0.013,0.114017543,1,3,
5,41,0.11,CS,769,,0.01,0.1,1,3,
5,42,0.33,CS,2987,,0.015,0.122474487,1,3,
5,43,0.77,CS,726,,0.012,0.109544512,2,3,
5,44,0.55,CS,1099,,0.009,0.09486833,2,3,
5,45,1,CS,970,,0.013,0.114017543,2,3,
6,1,0.33,CS,1175,,0.666,0.816088231,2,1,
6,2,0.55,CS,648,,0.802,0.895544527,2,1,
6,3,1,CS,729,,1.962,1.400714104,2,1,
6,4,0.77,CS,564,,0.177,0.420713679,2,1,
6,5,0.11,CS,1004,,0.311,0.55767374,1,1,
6,6,1,CS,992,,0.445,0.667083203,2,1,
6,7,0.77,CS,899,,0.213,0.46151923,2,1,
6,8,0.33,CS,1238,,0.393,0.626897121,2,1,
6,9,1,CS,932,,0.166,0.407430976,2,1,
6,10,0.11,CS,873,,0.608,0.779743548,1,1,
6,11,0.77,CS,880,,0.271,0.520576603,2,1,
6,12,0.33,CS,1036,,0.16,0.4,2,1,
6,13,0.55,CSUS,999,,0.306,0.553172667,2,1,
6,14,0.55,CS,669,,0.238,0.487852437,2,1,
6,15,0.11,CS,1211,,0.428,0.654217089,1,1,
6,16,0.11,CS,755,,0.425,0.651920241,1,2,
6,17,0.33,CS,945,,0.399,0.631664468,2,2,
6,18,0.55,CSUS,848,,0.331,0.575325995,2,2,
6,19,0.77,CS,852,,0.596,0.772010363,2,2,
6,20,1,CS,846,,1.248,1.117139204,2,2,
6,21,0.11,CS,982,,0.709,0.842021377,1,2,
6,22,0.33,CS,907,,0.253,0.502991054,2,2,
6,23,0.55,CS,879,,0.091,0.301662063,2,2,
6,24,0.77,CS,827,,0.238,0.487852437,2,2,
6,25,1,CS,806,,0.158,0.397492138,2,2,
6,26,0.77,CS,1033,,0.546,0.738918128,2,2,
6,27,0.33,CS,813,,0.44,0.663324958,2,2,
6,28,0.55,CSUS,853,,0.642,0.801249025,2,3,
6,29,1,CS,700,,0.192,0.438178046,2,2,
6,30,0.11,CS,906,,0.296,0.54405882,1,3,
6,31,0.11,CS1,819,,0.408,0.638748777,1,2,
6,32,1,CS1,951,,0.521,0.721803297,2,3,
6,33,0.55,CS1,912,,0.396,0.629285309,2,3,
6,34,0.77,CS1,784,,0.137,0.37013511,2,2,
6,35,0.33,CS1,929,,0.312,0.558569602,2,3,
6,36,0.77,CS,680,,0.282,0.531036722,2,3,
6,37,1,CS,810,,0.297,0.544977064,2,3,
6,38,0.55,CS,924,,0.312,0.558569602,2,3,
6,39,0.33,CS,979,,0.341,0.583952053,2,3,
6,40,0.11,CS,991,,0.242,0.491934955,1,3,
6,41,0.33,CS,985,,0.276,0.525357021,2,3,
6,42,0.77,CS,765,,0.721,0.849117189,2,3,
6,43,1,CS,965,,0.346,0.588217647,2,3,
6,44,0.11,CS,845,,0.083,0.288097206,1,3,
6,45,0.55,CS,936,,0.427,0.65345237,2,3,
7,1,0.11,CS,1267,,0.19,0.435889894,1,1,
7,2,0.33,CS,1430,,0.112,0.334664011,1,1,
7,3,1,CS,1204,,2.931,1.712016355,2,1,
7,4,0.77,CS,988,,0.346,0.588217647,2,1,
7,5,0.55,CS,971,,0.706,0.840238062,2,1,
7,6,1,CS,1079,,1.936,1.39140217,2,1,
7,7,0.55,CS,1029,,0.077,0.277488739,2,1,
7,8,0.77,CS,1393,,3.273,1.809143444,2,1,
7,9,0.11,CS,1085,,0.614,0.783581521,1,1,
7,10,0.77,CS,1183,,0.227,0.47644517,2,1,
7,11,0.33,CS,1987,,2.133,1.460479373,1,1,
7,12,0.33,CS,1287,,3.465,1.861451047,1,1,
7,13,0.11,CS,1462,,0.25,0.5,1,1,
7,14,1,CS,1189,,3.636,1.90682983,2,1,
7,15,0.55,CSUS,1235,,3.382,1.839021479,2,1,
7,16,0.11,CS,860,,0.444,0.66633325,1,2,
7,17,0.33,CS,1051,,0.306,0.553172667,1,2,
7,18,0.55,CSUS,1153,,2.726,1.651060265,2,2,
7,19,0.77,CS,953,,1.213,1.101362792,2,2,
7,20,1,CS,977,,0.994,0.996995486,2,2,
7,21,0.11,CS,699,,7.318,2.705180216,1,2,
7,22,0.33,CS,1000,,0.48,0.692820323,1,2,
7,23,0.55,CS,941,,4.208,2.051341025,2,2,
7,24,0.77,CS,760,,1.246,1.116243701,2,2,
7,25,1,CS,1225,,1.029,1.014396372,2,2,
7,26,0.55,CSUS,2103,,0.172,0.414728827,2,2,
7,27,0.33,CS,1269,,0.704,0.839047079,1,2,
7,28,1,CS,942,,0.714,0.844985207,2,3,
7,29,0.11,CS,1040,,0.241,0.490917508,1,2,
7,30,0.77,CS,1049,,0.439,0.662570751,2,2,
7,31,1,CS1,979,,0.584,0.764198927,2,3,
7,32,0.55,CS1,1578,,0.154,0.392428337,2,3,
7,33,0.33,CS1,1130,,0.622,0.788669766,1,2,
7,34,0.11,CS1,988,,0.267,0.516720427,1,3,
7,35,0.77,CS1,705,,0.895,0.946044396,2,3,
7,36,0.77,CS,1093,,2.069,1.438401891,2,3,
7,37,0.55,CS,923,,0.114,0.33763886,2,3,
7,38,0.11,CS,1027,,0.605,0.777817459,1,3,
7,39,0.33,CS,930,,0.076,0.275680975,1,3,
7,40,0.77,CS,1060,,1.504,1.226376777,2,3,
7,41,0.33,CS,969,,1.538,1.24016128,1,3,
7,42,1,CS,1142,,1.492,1.221474519,2,3,
7,43,1,CS,781,,0.08,0.282842712,2,3,
7,44,0.55,CS,1008,,0.28,0.529150262,2,3,
7,45,0.11,CS,1028,,0.341,0.583952053,1,3,
8,1,0.11,CS,1016,,0.056,0.236643191,1,1,
8,2,0.55,CS,1510,,1.336,1.155854662,2,1,
8,3,1,CS,683,,2.357,1.535252422,2,1,
8,4,0.77,CS,612,,1.776,1.3326665,2,1,
8,5,0.33,CS,1242,,0.076,0.275680975,2,1,
8,6,0.11,CS,1316,,1.258,1.121605991,1,1,
8,7,0.55,CSUS,1592,,0.117,0.342052628,2,1,
8,8,0.77,CS,604,,0.05,0.223606798,2,1,
8,9,0.11,CS,560,,0.07,0.264575131,1,1,
8,10,1,CS,647,,0.041,0.202484567,2,1,
8,11,1,CS,676,,0.033,0.181659021,2,1,
8,12,0.55,CS,756,,0.123,0.350713558,2,1,
8,13,0.33,CS,1219,,0.131,0.361939221,2,1,
8,14,0.77,CS,793,,0.07,0.264575131,2,1,
8,15,0.33,CS,854,,0.053,0.230217289,2,1,
8,16,0.11,CS,912,,0.03,0.173205081,1,2,
8,17,0.33,CS,1030,,0.012,0.109544512,2,2,
8,18,0.55,CSUS,749,,0.015,0.122474487,2,2,
8,19,0.77,CS,652,,0.106,0.325576412,2,2,
8,20,1,CS,552,,0.119,0.344963766,2,2,
8,21,0.11,CS,714,,0.024,0.154919334,1,2,
8,22,0.33,CS,1464,,0.025,0.158113883,2,2,
8,23,0.55,CS,778,,0.025,0.158113883,2,2,
8,24,0.77,CS,731,,0.025,0.158113883,2,2,
8,25,1,CS,728,,1.4,1.183215957,2,2,
8,26,0.11,CS,746,,0.021,0.144913767,1,2,
8,27,0.33,CS,1117,,0.085,0.291547595,1,2,
8,28,1,CS,827,,0.245,0.494974747,2,2,
8,29,0.77,CS,1156,,0.019,0.137840488,2,2,
8,30,0.55,CSUS,771,,0.477,0.690651866,2,3,
8,31,0.33,CS1,1222,,0.119,0.344963766,1,3,
8,32,1,CS1,1058,,0.088,0.296647939,2,3,
8,33,0.55,CS1,1164,,0.175,0.418330013,1,2,
8,34,0.77,CS1,1013,,0.036,0.18973666,2,3,
8,35,0.11,CS1,845,,0.062,0.248997992,1,3,
8,36,0.11,CS,871,,0.044,0.20976177,1,3,
8,37,1,CS,823,,0.668,0.81731267,2,3,
8,38,1,CS,787,,0.433,0.658027355,2,3,
8,39,0.55,CS,1443,,0.384,0.619677335,2,3,
8,40,0.77,CS,656,,0.48,0.692820323,2,3,
8,41,0.11,CS,881,,1.492,1.221474519,1,3,
8,42,0.77,CS,599,,0.839,0.915969432,2,3,
8,43,0.55,CS,698,,2.163,1.470714112,2,3,
8,44,0.33,CS,1341,,0.337,0.580517011,1,3,
8,45,0.33,CS,918,,0.158,0.397492138,1,3,
9,1,0.77,CS,950,,0.082,0.286356421,2,1,
9,2,1,CS,628,,0.09,0.3,2,1,
9,3,0.55,CS,661,,0.019,0.137840488,2,1,
9,4,0.33,CS,828,,0.015,0.122474487,1,1,
9,5,0.11,CS,645,,0.022,0.14832397,1,1,
9,6,0.11,CS,813,,0.03,0.173205081,1,1,
9,7,0.33,CS,1096,,0.019,0.137840488,2,1,
9,8,0.11,CS,785,,0.025,0.158113883,1,1,
9,9,1,CS,1361,,0.047,0.216794834,2,1,
9,10,1,CS,747,,0.013,0.114017543,2,1,
9,11,0.33,CS,1617,,0.305,0.552268051,1,1,
9,12,0.77,CS,995,,0.012,0.109544512,2,1,
9,13,0.55,CS,849,,0.019,0.137840488,2,1,
9,14,0.77,CS,817,,0.411,0.641092817,2,1,
9,15,0.55,CSUS,1228,,0.036,0.18973666,2,1,
9,16,0.11,CS,795,,0.019,0.137840488,1,2,
9,17,0.33,CS,940,,0.018,0.134164079,2,2,
9,18,0.55,CSUS,785,,0.114,0.33763886,2,2,
9,19,0.77,CS,697,,0.131,0.361939221,2,2,
9,20,1,CS,455,,0.067,0.258843582,2,2,
9,21,0.11,CS,635,,0.517,0.71902712,1,2,
9,22,0.33,CS,1066,,0.025,0.158113883,2,2,
9,23,0.55,CS,606,,0.033,0.181659021,2,2,
9,24,0.77,CS,1035,,0.09,0.3,2,2,
9,25,1,CS,517,,0.044,0.20976177,2,2,
9,26,0.11,CS,784,,0.169,0.411096096,1,2,
9,27,1,CS,668,,0.253,0.502991054,1,2,
9,28,0.55,CSUS,911,,0.033,0.181659021,2,2,
9,29,0.33,CS,945,,0.015,0.122474487,2,2,
9,30,0.77,CS,618,,0.061,0.246981781,2,3,
9,31,0.55,CS1,678,,0.09,0.3,2,2,
9,32,1,CS1,641,,0.379,0.615629759,2,3,
9,33,0.11,CS1,751,,1.313,1.145862121,1,3,
9,34,0.33,CS1,1623,,0.068,0.260768096,2,3,
9,35,0.77,CS1,764,,0.062,0.248997992,2,3,
9,36,0.77,CS,860,,0.059,0.242899156,2,3,
9,37,0.55,CS,916,,0.027,0.164316767,2,3,
9,38,0.77,CS,1019,,0.05,0.223606798,2,3,
9,39,0.11,CS,965,,0.015,0.122474487,1,3,
9,40,0.55,CS,874,,0.012,0.109544512,2,3,
9,41,1,CS,744,,0.022,0.14832397,2,3,
9,42,0.33,CS,794,,0.022,0.14832397,2,3,
9,43,0.11,CS,1049,,0.025,0.158113883,1,3,
9,44,1,CS,779,,0.021,0.144913767,2,3,
9,45,0.33,CS,788,,0.012,0.109544512,2,3,
10,1,0.77,CS,821,,1.785,1.336038922,2,1,
10,2,0.55,CS,1051,,0.054,0.232379001,2,1,
10,3,1,CS,820,,1.307,1.143241007,2,1,
10,4,0.11,CS,948,,0.999,0.999499875,1,1,
10,5,0.33,CS,874,,1.651,1.284912448,2,1,
10,6,0.11,CS,961,,0.648,0.804984472,1,1,
10,7,1,CS,691,,1.229,1.108602724,2,1,
10,8,0.77,CS,778,,0.076,0.275680975,2,1,
10,9,0.33,CS,1976,,0.064,0.252982213,1,1,
10,10,0.33,CS,1402,,2.11,1.452583905,1,1,
10,11,1,CS,713,,1.435,1.197914855,2,1,
10,12,0.55,CS,1089,,0.103,0.320936131,2,1,
10,13,0.11,CS,706,,0.169,0.411096096,1,1,
10,14,0.55,CSUS,758,,0.077,0.277488739,2,1,
10,15,0.77,CS,776,,1.17,1.081665383,2,1,
10,16,0.11,CS,626,,0.094,0.306594194,1,2,
10,17,0.33,CS,639,,0.135,0.367423461,1,2,
10,18,0.55,CSUS,544,,0.906,0.951840323,2,2,
10,19,0.77,CS,1414,,0.126,0.354964787,2,2,
10,20,1,CS,772,,1.597,1.263724654,2,2,
10,21,0.11,CS,1217,,0.108,0.328633535,1,2,
10,22,0.33,CS,765,,0.926,0.962288938,1,2,
10,23,0.55,CS,683,,1.676,1.294604187,2,2,
10,24,0.77,CS,715,,1.466,1.210784869,2,2,
10,25,1,CS,681,,0.105,0.324037035,2,2,
10,26,1,CS,848,,0.581,0.76223356,2,2,
10,27,0.11,CS,674,,0.772,0.878635305,1,2,
10,28,0.77,CS,663,,0.985,0.992471662,2,2,
10,29,0.33,CS,721,,0.056,0.236643191,1,3,
10,30,0.55,CSUS,609,,0.03,0.173205081,2,2,
10,31,0.55,CS1,634,,0.576,0.758946638,2,3,
10,32,1,CS1,667,,2.098,1.448447445,2,3,
10,33,0.77,CS1,675,,1.377,1.173456433,2,2,
10,34,0.33,CS1,477,,0.077,0.277488739,1,3,
10,35,0.11,CS1,986,,0.064,0.252982213,1,3,
10,36,0.77,CS,700,,0.218,0.466904701,2,3,
10,37,0.55,CS,686,,0.18,0.424264069,2,3,
10,38,1,CS,539,,2.351,1.533297101,2,3,
10,39,0.33,CS,665,,0.209,0.457165178,1,3,
10,40,0.11,CS,803,,0.047,0.216794834,1,3,
10,41,0.55,CS,528,,1.443,1.20124935,2,3,
10,42,1,CS,516,,0.924,0.961249187,2,3,
10,43,0.11,CS,678,,0.07,0.264575131,1,3,
10,44,0.77,CS,775,,0.044,0.20976177,2,3,
10,45,0.33,CS,695,,0.819,0.904986188,1,3,
11,1,1,CS,919,,0.889,0.942867965,2,1,
11,2,0.11,CS,764,,0.186,0.431277173,1,1,
11,3,0.77,CS,562,,1.686,1.298460627,2,1,
11,4,0.33,CS,2615,,1.24,1.113552873,1,1,
11,5,0.55,CS,838,,1.658,1.287633488,2,1,
11,6,0.77,CS,917,,1.953,1.397497764,2,1,
11,7,0.55,CS,437,,1.753,1.324009063,2,1,
11,8,0.55,CSUS,781,,1.115,1.055935604,2,1,
11,9,0.33,CS,1627,,0.25,0.5,1,1,
11,10,0.77,CS,797,,2.059,1.434921601,2,1,
11,11,0.33,CS,1059,,1.86,1.36381817,1,1,
11,12,0.11,CS,762,,0.1,0.316227766,1,1,
11,13,0.11,CS,620,,0.106,0.325576412,1,1,
11,14,1,CS,864,,0.837,0.914877041,2,1,
11,15,1,CS,721,,2.038,1.427585374,2,1,
11,16,0.11,CS,710,,0.247,0.496990946,1,2,
11,17,0.33,CS,1452,,0.067,0.258843582,1,2,
11,18,0.55,CSUS,1213,,0.073,0.270185122,2,2,
11,19,0.77,CS,818,,0.819,0.904986188,2,2,
11,20,1,CS,731,,1.036,1.017840852,2,2,
11,21,0.11,CS,698,,0.221,0.470106371,1,2,
11,22,0.33,CS,1187,,0.07,0.264575131,1,2,
11,23,0.55,CS,1206,,0.212,0.460434577,2,2,
11,24,0.77,CS,845,,1.502,1.225561096,2,2,
11,25,1,CS,741,,1.084,1.041153207,2,2,
11,26,0.33,CS,1255,,0.137,0.37013511,1,2,
11,27,0.77,CS,730,,0.61,0.781024968,2,2,
11,28,1,CS,674,,1.914,1.383473888,2,2,
11,29,0.11,CS,819,,0.558,0.746993976,1,3,
11,30,0.55,CSUS,585,,0.244,0.493963561,2,2,
11,31,0.11,CS1,725,,0.064,0.252982213,1,3,
11,32,0.33,CS1,1081,,0.111,0.333166625,1,3,
11,33,0.77,CS1,647,,1.576,1.255388386,2,3,
11,34,0.55,CS1,684,,1.782,1.334915728,2,2,
11,35,1,CS1,627,,1.388,1.178134118,2,3,
11,36,0.55,CS,994,,1.246,1.116243701,2,3,
11,37,0.33,CS,660,,0.169,0.411096096,1,3,
11,38,1,CS,709,,1.42,1.191637529,2,3,
11,39,0.77,CS,612,,1.31,1.144552314,2,3,
11,40,0.33,CS,977,,0.086,0.293257566,1,3,
11,41,0.11,CS,810,,0.019,0.137840488,1,3,
11,42,0.11,CS,653,,0.143,0.378153408,1,3,
11,43,1,CS,624,,0.816,0.903327183,2,3,
11,44,0.55,CS,1215,,0.097,0.31144823,2,3,
11,45,0.77,CS,692,,0.054,0.232379001,2,3,
12,1,1,CS,2441,,2.293,1.514265499,2,1,
12,2,0.33,CS,1742,,0.393,0.626897121,2,1,
12,3,0.55,CS,906,,0.584,0.764198927,2,1,
12,4,0.77,CS,727,,0.781,0.883742044,2,1,
12,5,0.11,CS,870,,2.595,1.610900369,1,1,
12,6,0.55,CSUS,614,,1.051,1.025182911,2,1,
12,7,0.77,CS,917,,0.453,0.673052747,2,1,
12,8,1,CS,835,,0.074,0.27202941,2,1,
12,9,0.55,CS,915,,0.057,0.238746728,2,1,
12,10,1,CS,971,,1.858,1.363084737,2,1,
12,11,0.77,CS,1340,,0.312,0.558569602,2,1,
12,12,0.33,CS,1173,,0.027,0.164316767,2,1,
12,13,0.11,CS,4310,,0.117,0.342052628,1,1,
12,14,0.11,CS,799,,0.091,0.301662063,1,1,
12,15,0.33,CS,715,,0.602,0.77588659,2,1,
12,16,0.11,CS,1335,,0.167,0.408656335,1,2,
12,17,0.33,CS,726,,0.735,0.85732141,2,2,
12,18,0.55,CSUS,768,,0.042,0.204939015,2,2,
12,19,0.77,CS,1309,,0.074,0.27202941,2,2,
12,20,1,CS,861,,0.331,0.575325995,2,2,
12,21,0.11,CS,1589,,0.093,0.304959014,1,2,
12,22,0.33,CS,901,,0.047,0.216794834,2,2,
12,23,0.55,CS,1286,,0.053,0.230217289,2,2,
12,24,0.77,CS,1260,,0.015,0.122474487,2,2,
12,25,1,CS,949,,0.529,0.727323862,2,2,
12,26,0.33,CS,1003,,0.035,0.187082869,1,2,
12,27,0.55,CSUS,1403,,0.016,0.126491106,2,2,
12,28,0.77,CS,974,,0.064,0.252982213,2,2,
12,29,0.11,CS,681,,0.099,0.314642654,1,2,
12,30,1,CS,773,,1.638,1.27984374,2,2,
12,31,0.55,CS1,680,,0.364,0.603324125,2,3,
12,32,0.33,CS1,1891,,0.041,0.202484567,1,3,
12,33,0.11,CS1,3655,,2.033,1.42583309,1,3,
12,34,1,CS1,658,,0.48,0.692820323,2,3,
12,35,0.77,CS1,902,,0.062,0.248997992,2,3,
12,36,0.77,CS,1701,,0.028,0.167332005,2,3,
12,37,0.77,CS,1503,,0.024,0.154919334,2,3,
12,38,0.11,CS,1119,,1.055,1.027131929,1,3,
12,39,0.55,CS,1565,,0.076,0.275680975,2,3,
12,40,0.11,CS,1795,,0.021,0.144913767,1,3,
12,41,1,CS,1400,,0.012,0.109544512,2,3,
12,42,0.33,CS,2068,,0.024,0.154919334,2,3,
12,43,1,CS,1226,,0.013,0.114017543,2,3,
12,44,0.33,CS,2865,,0.025,0.158113883,2,3,
12,45,0.55,CS,1147,,0.199,0.44609416,2,3,
13,1,0.55,CS,0,,3.201,1.789133869,,1,
13,2,1,CS,542,,4.608,2.146625258,2,1,
13,3,0.33,CS,714,,3.468,1.862256696,1,1,
13,4,0.77,CS,640,,3.247,1.801943395,2,1,
13,5,0.11,CS,1414,,3.034,1.74183811,1,1,
13,6,0.77,CS,798,,1.704,1.30537351,2,1,
13,7,0.33,CS,1266,,0.703,0.838450953,2,1,
13,8,0.11,CS,1040,,0.262,0.511859356,1,1,
13,9,0.11,CS,1921,,0.602,0.77588659,1,1,
13,10,1,CS,664,,0.765,0.874642784,2,1,
13,11,1,CS,622,,1.85,1.360147051,2,1,
13,12,0.33,CS,1585,,1.103,1.050238068,2,1,
13,13,0.77,CS,970,,1.086,1.042113238,2,1,
13,14,0.55,CSUS,724,,0.054,0.232379001,2,1,
13,15,0.55,CS,576,,3.385,1.839836949,2,1,
13,16,0.11,CS,1360,,3.625,1.903943276,1,2,
13,17,0.33,CS,749,,2.839,1.684933233,2,2,
13,18,0.55,CSUS,514,,3.311,1.819615344,2,2,
13,19,0.77,CS,785,,2.386,1.544668249,2,2,
13,20,1,CS,564,,2.868,1.69351705,2,2,
13,21,0.11,CS,651,,1.243,1.114899099,1,2,
13,22,0.33,CS,416,,2.427,1.557883179,2,2,
13,23,0.55,CS,476,,3.442,1.855262785,2,2,
13,24,0.77,CS,302,,3.115,1.764936259,2,2,
13,25,1,CS,584,,1.832,1.353513945,2,2,
13,26,0.11,CS,664,,0.582,0.762889245,1,2,
13,27,0.77,CS,520,,1.771,1.33078924,2,2,
13,28,0.55,CSUS,421,,1.347,1.160603291,2,2,
13,29,0.33,CS,992,,1.554,1.246595363,2,2,
13,30,1,CS,498,,2.894,1.701176064,2,3,
13,31,0.77,CS1,449,,2.131,1.459794506,2,3,
13,32,1,CS1,568,,2.282,1.510629008,2,2,
13,33,0.11,CS1,750,,0.444,0.66633325,1,3,
13,34,0.55,CS1,552,,2.868,1.69351705,2,3,
13,35,0.33,CS1,737,,1.759,1.326272973,2,3,
13,36,0.33,CS,662,,0.051,0.225831796,2,3,
13,37,1,CS,601,,2.468,1.570986951,2,3,
13,38,0.33,CS,764,,1.094,1.045944549,2,3,
13,39,0.77,CS,539,,1.251,1.118481113,2,3,
13,40,0.55,CS,532,,0.08,0.282842712,2,3,
13,41,0.77,CS,542,,1.739,1.318711492,2,3,
13,42,0.11,CS,1032,,0.096,0.309838668,1,3,
13,43,0.55,CS,748,,0.953,0.976217189,2,3,
13,44,1,CS,535,,1.733,1.316434579,2,3,
13,45,0.11,CS,875,,0.389,0.623698645,1,3,
14,1,1,CS,929,,3.164,1.778763616,2,1,
14,2,0.55,CS,1100,,0.378,0.614817046,2,1,
14,3,0.11,CS,637,,1.01,1.004987562,1,1,
14,4,0.33,CS,1264,,0.801,0.894986033,1,1,
14,5,0.77,CS,912,,0.311,0.55767374,2,1,
14,6,0.77,CS,1218,,0.198,0.444971909,2,1,
14,7,0.33,CS,1274,,0.028,0.167332005,1,1,
14,8,0.11,CS,1158,,0.015,0.122474487,1,1,
14,9,1,CS,1383,,0.857,0.925742945,2,1,
14,10,1,CS,1684,,1.036,1.017840852,2,1,
14,11,0.55,CS,2337,,0.296,0.54405882,2,1,
14,12,0.33,CS,1153,,0.044,0.20976177,1,1,
14,13,0.11,CS,1190,,0.01,0.1,1,1,
14,14,0.77,CS,1143,,0.03,0.173205081,2,1,
14,15,0.55,CSUS,1682,,0.013,0.114017543,2,1,
14,16,0.11,CS,1071,,0.102,0.319374388,1,2,
14,17,0.33,CS,2097,,0.053,0.230217289,1,2,
14,18,0.55,CSUS,1449,,0.015,0.122474487,2,2,
14,19,0.77,CS,1400,,0.834,0.913236005,2,2,
14,20,1,CS,1352,,1.896,1.376953158,2,2,
14,21,0.11,CS,1129,,0.453,0.673052747,1,2,
14,22,0.33,CS,1238,,1.141,1.068176015,1,2,
14,23,0.55,CS,1152,,0.518,0.719722169,2,2,
14,24,0.77,CS,1349,,1.254,1.119821414,2,2,
14,25,1,CS,1091,,1.161,1.0774971,2,2,
14,26,1,CS,1329,,0.26,0.509901951,2,2,
14,27,0.11,CS,1187,,0.927,0.962808392,1,2,
14,28,0.55,CSUS,1334,,0.37,0.608276253,2,2,
14,29,0.77,CS,1641,,0.474,0.688476579,2,3,
14,30,0.33,CS,1556,,0.071,0.266458252,1,3,
14,31,0.55,CS1,1647,,0.059,0.242899156,1,2,
14,32,1,CS1,1233,,0.279,0.528204506,2,3,
14,33,0.77,CS1,1921,,0.386,0.621288983,2,2,
14,34,0.11,CS1,1091,,0.146,0.382099463,1,3,
14,35,0.33,CS1,2062,,4.354,2.086624068,1,3,
14,36,0.55,CS,1541,,0.215,0.463680925,2,3,
14,37,0.55,CS,3187,,2.276,1.508641773,2,3,
14,38,0.33,CS,1185,,0.267,0.516720427,1,3,
14,39,0.77,CS,1377,,3.825,1.955760722,2,3,
14,40,0.33,CS,1082,,0.296,0.54405882,1,3,
14,41,1,CS,1195,,0.067,0.258843582,2,3,
14,42,1,CS,1606,,0.021,0.144913767,2,3,
14,43,0.11,CS,957,,0.129,0.3591657,1,3,
14,44,0.11,CS,1307,,0.013,0.114017543,1,3,
14,45,0.77,CS,2011,,0.013,0.114017543,2,3,
15,1,0.77,CS,2218,,1.472,1.213260071,2,1,
15,2,1,CS,989,,0.65,0.806225775,2,1,
15,3,0.55,CS,997,,0.311,0.55767374,2,1,
15,4,0.11,CS,579,,0.233,0.482700735,1,1,
15,5,0.33,CS,635,,0.55,0.741619849,1,1,
15,6,0.77,CS,643,,0.241,0.490917508,2,1,
15,7,1,CS,829,,0.303,0.550454358,2,1,
15,8,0.55,CSUS,1131,,0.54,0.734846923,2,1,
15,9,1,CS,805,,0.311,0.55767374,2,1,
15,10,0.11,CS,671,,0.424,0.651152824,1,1,
15,11,0.11,CS,571,,0.12,0.346410162,1,1,
15,12,0.77,CS,588,,0.212,0.460434577,2,1,
15,13,0.33,CS,572,,0.68,0.824621125,1,1,
15,14,0.33,CS,1468,,0.094,0.306594194,1,1,
15,15,0.55,CS,702,,0.59,0.768114575,2,1,
15,16,0.11,CS,572,,0.259,0.508920426,1,2,
15,17,0.33,CS,2123,,0.219,0.467974358,2,2,
15,18,0.55,CSUS,639,,0.18,0.424264069,2,2,
15,19,0.77,CS,622,,0.195,0.441588043,2,2,
15,20,1,CS,583,,0.323,0.56833089,2,2,
15,21,0.11,CS,624,,0.183,0.427784993,1,2,
15,22,0.33,CS,926,,0.12,0.346410162,1,2,
15,23,0.55,CS,670,,0.238,0.487852437,2,2,
15,24,0.77,CS,816,,0.334,0.577927331,2,2,
15,25,1,CS,634,,0.166,0.407430976,2,2,
15,26,0.33,CS,611,,0.228,0.477493455,1,2,
15,27,1,CS,546,,0.25,0.5,2,3,
15,28,0.55,CSUS,713,,0.308,0.554977477,2,2,
15,29,0.11,CS,805,,0.231,0.480624594,1,2,
15,30,0.77,CS,639,,0.198,0.444971909,2,2,
15,31,0.11,CS1,712,,0.585,0.764852927,1,3,
15,32,0.77,CS1,685,,0.444,0.66633325,2,3,
15,33,0.33,CS1,683,,0.267,0.516720427,1,2,
15,34,1,CS1,680,,0.079,0.281069386,2,3,
15,35,0.55,CS1,710,,0.086,0.293257566,2,3,
15,36,0.77,CS,470,,0.244,0.493963561,2,3,
15,37,0.55,CS,827,,0.233,0.482700735,2,3,
15,38,0.11,CS,699,,0.109,0.33015148,1,3,
15,39,1,CS,691,,0.207,0.454972527,2,3,
15,40,0.55,CS,647,,0.149,0.386005181,2,3,
15,41,0.33,CS,973,,0.18,0.424264069,1,3,
15,42,1,CS,756,,0.303,0.550454358,2,3,
15,43,0.33,CS,1100,,0.653,0.808084154,1,3,
15,44,0.11,CS,857,,0.1,0.316227766,1,3,
15,45,0.77,CS,609,,0.453,0.673052747,2,3,
16,1,0.11,CS,1382,,0.083,0.288097206,1,1,
16,2,0.77,CS,785,,0.234,0.483735465,2,1,
16,3,0.55,CS,837,,0.047,0.216794834,2,1,
16,4,1,CS,690,,0.01,0.1,2,1,
16,5,0.33,CS,829,,0.659,0.81178815,1,1,
16,6,0.33,CS,1244,,0.138,0.371483512,1,1,
16,7,1,CS,745,,0.115,0.339116499,2,1,
16,8,0.77,CS,838,,0.015,0.122474487,2,1,
16,9,0.55,CSUS,1454,,0.013,0.114017543,2,1,
16,10,0.11,CS,765,,0.135,0.367423461,1,1,
16,11,0.77,CS,574,,0.281,0.530094331,2,1,
16,12,0.11,CS,672,,0.054,0.232379001,1,1,
16,13,0.33,CS,670,,0.709,0.842021377,1,1,
16,14,0.55,CS,971,,0.868,0.931665176,2,1,
16,15,1,CS,796,,0.279,0.528204506,2,1,
16,16,0.11,CS,997,,0.05,0.223606798,1,2,
16,17,0.33,CS,2124,,0.022,0.14832397,1,2,
16,18,0.55,CSUS,1505,,0.012,0.109544512,2,2,
16,19,0.77,CS,803,,0.204,0.451663592,2,2,
16,20,1,CS,830,,0.55,0.741619849,2,2,
16,21,0.11,CS,946,,0.07,0.264575131,1,2,
16,22,0.33,CS,2214,,0.019,0.137840488,1,2,
16,23,0.55,CS,1183,,0.016,0.126491106,2,2,
16,24,0.77,CS,924,,0.44,0.663324958,2,2,
16,25,1,CS,769,,0.051,0.225831796,2,2,
16,26,0.33,CS,1510,,0.018,0.134164079,1,2,
16,27,0.55,CSUS,889,,0.012,0.109544512,2,2,
16,28,0.11,CS,2975,,0.054,0.232379001,1,2,
16,29,0.77,CS,944,,0.051,0.225831796,2,2,
16,30,1,CS,1379,,0.035,0.187082869,2,2,
16,31,1,CS1,937,,0.015,0.122474487,2,3,
16,32,0.11,CS1,1033,,0.015,0.122474487,1,3,
16,33,0.77,CS1,1621,,0.012,0.109544512,2,3,
16,34,0.33,CS1,1007,,0.042,0.204939015,1,3,
16,35,0.55,CS1,1696,,0.035,0.187082869,2,3,
16,36,0.77,CS,899,,0.012,0.109544512,2,3,
16,37,0.33,CS,1993,,0.047,0.216794834,1,3,
16,38,0.55,CS,886,,0.01,0.1,2,3,
16,39,0.11,CS,915,,0.015,0.122474487,1,3,
16,40,0.11,CS,855,,0.015,0.122474487,1,3,
16,41,0.33,CS,1177,,0.012,0.109544512,2,3,
16,42,1,CS,846,,0.015,0.122474487,2,3,
16,43,1,CS,743,,0.021,0.144913767,2,3,
16,44,0.77,CS,946,,0.009,0.09486833,2,3,
16,45,0.55,CS,1191,,0.109,0.33015148,2,3,
17,1,1,CS,621,,0.608,0.779743548,2,1,
17,2,0.55,CS,3393,,0.233,0.482700735,2,1,
17,3,0.33,CS,1455,,0.181,0.425440948,1,1,
17,4,0.11,CS,1286,,0.19,0.435889894,1,1,
17,5,0.77,CS,725,,0.405,0.636396103,2,1,
17,6,0.55,CS,1889,,0.422,0.649615271,2,1,
17,7,0.33,CS,1944,,0.352,0.593295879,2,1,
17,8,0.11,CS,1058,,0.219,0.467974358,1,1,
17,9,0.77,CS,732,,0.656,0.809938269,2,1,
17,10,0.11,CS,963,,0.045,0.212132034,1,1,
17,11,0.55,CSUS,757,,0.526,0.725258575,2,1,
17,12,1,CS,762,,0.433,0.658027355,2,1,
17,13,1,CS,732,,0.45,0.670820393,2,1,
17,14,0.33,CS,1699,,0.184,0.428952212,2,1,
17,15,0.77,CS,768,,0.245,0.494974747,2,1,
17,16,0.11,CS,794,,0.181,0.425440948,1,2,
17,17,0.33,CS,1175,,0.183,0.427784993,1,2,
17,18,0.55,CSUS,698,,0.358,0.598331012,2,2,
17,19,0.77,CS,953,,0.292,0.540370243,2,2,
17,20,1,CS,848,,0.538,0.733484833,2,2,
17,21,0.11,CS,664,,0.137,0.37013511,1,2,
17,22,0.33,CS,1154,,0.3,0.547722558,2,2,
17,23,0.55,CS,817,,0.323,0.56833089,2,2,
17,24,0.77,CS,851,,0.578,0.760263112,2,2,
17,25,1,CS,820,,0.871,0.933273808,2,2,
17,26,0.33,CS,1894,,0.038,0.194935887,1,2,
17,27,0.55,CSUS,768,,0.207,0.454972527,2,2,
17,28,0.11,CS,782,,0.231,0.480624594,1,3,
17,29,0.77,CS,829,,0.25,0.5,2,2,
17,30,1,CS,757,,0.285,0.533853913,2,2,
17,31,0.11,CS1,845,,0.073,0.270185122,1,2,
17,32,0.33,CS1,1115,,0.216,0.464758002,1,3,
17,33,0.77,CS1,740,,0.309,0.555877684,2,3,
17,34,1,CS1,895,,0.39,0.6244998,2,3,
17,35,0.55,CS1,816,,0.247,0.496990946,2,3,
17,36,1,CS,801,,0.231,0.480624594,2,3,
17,37,0.77,CS,892,,0.25,0.5,2,3,
17,38,1,CS,790,,0.395,0.628490254,2,3,
17,39,0.11,CS,809,,0.039,0.197484177,1,3,
17,40,0.55,CS,973,,0.294,0.542217668,2,3,
17,41,0.77,CS,786,,0.567,0.752994024,2,3,
17,42,0.33,CS,855,,0.093,0.304959014,1,3,
17,43,0.11,CS,903,,0.1,0.316227766,1,3,
17,44,0.33,CS,2811,,0.19,0.435889894,1,3,
17,45,0.55,CS,771,,0.291,0.539444158,2,3,
18,1,0.55,CS,838,,1.733,1.316434579,2,1,
18,2,0.77,CS,985,,0.511,0.71484264,2,1,
18,3,1,CS,862,,0.659,0.81178815,2,1,
18,4,0.11,CS,912,,0.3,0.547722558,1,1,
18,5,0.33,CS,2184,,1.046,1.022741414,2,1,
18,6,0.11,CS,952,,1.164,1.078888317,1,1,
18,7,0.55,CSUS,802,,0.093,0.304959014,2,1,
18,8,0.33,CS,1789,,0.559,0.747663026,2,1,
18,9,1,CS,1034,,0.018,0.134164079,2,1,
18,10,0.77,CS,1066,,0.047,0.216794834,2,1,
18,11,1,CS,884,,1.76,1.326649916,2,1,
18,12,0.55,CS,1388,,0.724,0.850881895,2,1,
18,13,0.11,CS,1018,,0.836,0.914330356,1,1,
18,14,0.77,CS,624,,0.816,0.903327183,2,1,
18,15,0.33,CS,1404,,1.844,1.357939616,2,1,
18,16,0.11,CS,841,,0.299,0.546808925,1,2,
18,17,0.33,CS,1803,,0.273,0.522494019,2,2,
18,18,0.55,CSUS,978,,0.015,0.122474487,2,2,
18,19,0.77,CS,972,,73,8.544003745,2,2,
18,20,1,CS,967,,0.317,0.56302753,2,2,
18,21,0.11,CS,969,,1.165,1.079351657,1,2,
18,22,0.33,CS,1305,,0.047,0.216794834,1,2,
18,23,0.55,CS,834,,0.578,0.760263112,2,2,
18,24,0.77,CS,829,,0.038,0.194935887,2,2,
18,25,1,CS,760,,1.843,1.357571361,2,2,
18,26,0.77,CS,1389,,0.064,0.252982213,2,2,
18,27,1,CS,931,,0.634,0.796241169,2,2,
18,28,0.11,CS,1009,,0.512,0.715541753,1,3,
18,29,0.33,CS,1526,,0.077,0.277488739,1,3,
18,30,0.55,CSUS,714,,1.051,1.025182911,2,2,
18,31,0.77,CS1,767,,0.538,0.733484833,2,2,
18,32,1,CS1,746,,0.817,0.903880523,2,2,
18,33,0.55,CS1,1416,,0.895,0.946044396,2,3,
18,34,0.33,CS1,1659,,0.227,0.47644517,1,3,
18,35,0.11,CS1,1154,,0.083,0.288097206,1,3,
18,36,0.77,CS,778,,0.776,0.880908622,2,3,
18,37,0.33,CS,1458,,0.016,0.126491106,1,3,
18,38,0.33,CS,2348,,0.169,0.411096096,1,3,
18,39,0.11,CS,1266,,0.033,0.181659021,1,3,
18,40,0.11,CS,996,,0.646,0.803741252,1,3,
18,41,0.55,CS,881,,0.457,0.676017751,2,3,
18,42,0.55,CS,1192,,0.32,0.565685425,2,3,
18,43,1,CS,1055,,0.637,0.798122798,2,3,
18,44,0.77,CS,883,,0.042,0.204939015,2,3,
18,45,1,CS,787,,0.584,0.764198927,2,3,
19,1,0.55,CS,778,,0.155,0.393700394,2,1,
19,2,0.77,CS,863,,0.038,0.194935887,2,1,
19,3,0.33,CS,1271,,0.064,0.252982213,1,1,
19,4,0.11,CS,839,,0.086,0.293257566,1,1,
19,5,1,CS,732,,0.039,0.197484177,2,1,
19,6,0.33,CS,1123,,0.01,0.1,1,1,
19,7,0.11,CS,706,,2.656,1.629723903,1,1,
19,8,1,CS,595,,1.425,1.193733639,2,1,
19,9,1,CS,635,,0.076,0.275680975,2,1,
19,10,0.11,CS,844,,0.019,0.137840488,1,1,
19,11,0.55,CSUS,987,,0.21,0.458257569,2,1,
19,12,0.33,CS,865,,0.109,0.33015148,1,1,
19,13,0.77,CS,531,,0.624,0.789936706,2,1,
19,14,0.77,CS,620,,4.045,2.011218536,2,1,
19,15,0.55,CS,607,,0.164,0.404969135,2,1,
19,16,0.11,CS,732,,0.041,0.202484567,1,2,
19,17,0.33,CS,1082,,0.053,0.230217289,2,2,
19,18,0.55,CSUS,745,,0.099,0.314642654,2,2,
19,19,0.77,CS,1003,,0.218,0.466904701,2,2,
19,20,1,CS,1107,,0.692,0.831865374,2,2,
19,21,0.11,CS,894,,0.088,0.296647939,1,2,
19,22,0.33,CS,849,,0.231,0.480624594,2,2,
19,23,0.55,CS,908,,0.04,0.2,2,2,
19,24,0.77,CS,748,,0.05,0.223606798,2,2,
19,25,1,CS,936,,0.027,0.164316767,2,2,
19,26,1,CS,888,,0.015,0.122474487,2,2,
19,27,0.11,CS,1072,,0.042,0.204939015,1,2,
19,28,0.55,CSUS,1373,,0.946,0.972625313,2,2,
19,29,0.33,CS,1390,,0.109,0.33015148,2,3,
19,30,0.77,CS,747,,0.048,0.219089023,2,3,
19,31,0.55,CS1,1136,,0.021,0.144913767,2,2,
19,32,0.11,CS1,947,,0.019,0.137840488,1,3,
19,33,0.77,CS1,661,,0.12,0.346410162,2,3,
19,34,0.33,CS1,1465,,0.018,0.134164079,2,2,
19,35,1,CS1,726,,0.067,0.258843582,2,3,
19,36,0.55,CS,1017,,0.093,0.304959014,2,3,
19,37,0.55,CS,1322,,0.032,0.178885438,2,3,
19,38,0.33,CS,1370,,0.035,0.187082869,2,3,
19,39,0.77,CS,752,,0.961,0.980306075,2,3,
19,40,0.77,CS,974,,1.725,1.313392554,2,3,
19,41,0.11,CS,671,,0.079,0.281069386,1,3,
19,42,1,CS,715,,0.994,0.996995486,2,3,
19,43,0.33,CS,1325,,1.599,1.264515718,1,3,
19,44,1,CS,667,,0.12,0.346410162,2,3,
19,45,0.11,CS,1035,,0.221,0.470106371,1,3,
20,1,0.33,CS,748,,2.09,1.445683229,2,1,
20,2,0.55,CS,777,,1.197,1.094074952,2,1,
20,3,1,CS,947,,0.878,0.937016542,2,1,
20,4,0.77,CS,670,,2.445,1.563649577,2,2,
20,5,0.11,CS,934,,1.658,1.287633488,1,2,
20,6,1,CS,704,,0.36,0.6,2,2,
20,7,0.77,CS,974,,1.829,1.352405265,2,3,
20,8,0.11,CS,1169,,0.709,0.842021377,1,3,
20,9,0.33,CS,944,,1.374,1.172177461,1,3,
20,10,0.33,CS,1613,,1.04,1.019803903,1,1,
20,11,0.55,CSUS,1527,,0.068,0.260768096,2,1,
20,12,0.77,CS,698,,2,1.414213562,2,1,
20,13,0.55,CS,614,,2,1.414213562,2,2,
20,14,0.11,CS,721,,0.189,0.434741302,1,2,
20,15,1,CS,791,,3.7,1.923538406,2,3,
20,16,0.11,CS,587,,0.22,0.469041576,1,3,
20,17,0.33,CS,873,,1.2,1.095445115,1,3,
20,18,0.55,CSUS,1389,,0.595,0.771362431,2,3,
20,19,0.77,CS,553,,0.497,0.704982269,2,1,
20,20,1,CS,649,,3.746,1.935458602,2,1,
20,21,0.11,CS,823,,1.716,1.309961832,1,1,
20,22,0.33,CS,1413,,0.547,0.739594483,1,2,
20,23,0.55,CS,542,,2.473,1.572577502,2,2,
20,24,0.77,CS,886,,2.32,1.523154621,2,2,
20,25,1,CS,632,,2.357,1.535252422,2,2,
20,26,0.33,CS,896,,1.445,1.202081528,1,3,
20,27,0.11,CS,1035,,0.154,0.392428337,1,3,
20,28,0.77,CS,598,,1.892,1.375499909,2,1,
20,29,0.55,CSUS,598,,1.022,1.010940156,2,1,
20,30,1,CS,538,,1.718,1.31072499,2,1,
20,31,0.55,CS1,1203,,2.473,1.572577502,2,2,
20,32,0.11,CS1,641,,0.044,0.20976177,1,2,
20,33,0.33,CS1,804,,0.077,0.277488739,1,2,
20,34,0.77,CS1,662,,1.062,1.030533842,2,3,
20,35,1,CS1,749,,1.055,1.027131929,2,3,
20,36,0.55,CS,696,,1.411,1.18785521,2,3,
20,37,1,CS,606,,1.896,1.376953158,2,1,
20,38,0.11,CS,800,,0.172,0.414728827,1,1,
20,39,0.33,CS,1282,,0.033,0.181659021,1,1,
20,40,0.55,CS,723,,0.083,0.288097206,2,2,
20,41,1,CS,725,,0.677,0.822800097,2,2,
20,42,0.33,CS,1069,,0.016,0.126491106,1,2,
20,43,0.77,CS,656,,0.526,0.725258575,2,3,
20,44,0.77,CS,637,,0.465,0.681909085,2,3,
20,45,0.11,CS,580,,0.015,0.122474487,1,3,