subject,trial,face,trial_type,rt,HandScored_scr,raw_scr,scr,response
1,1,0.11,CS,4386,,0.704,0.839047079,1
1,2,0.55,CS,2577,,0.234,0.483735465,2
1,3,0.11,CS,2078,,0.173,0.415932687,1
1,4,0.55,CS,1696,,0.064,0.252982213,2
1,5,0.11,CS,928,,0.019,0.137840488,1
1,6,0.55,CS,794,,0.019,0.137840488,2
1,7,0.55,CSUS,1613,,3.447,1.856609814,2
1,8,0.11,CS,1363,,0.753,0.867755726,1
1,9,0.55,CSUS,1250,,2.183,1.477497885,2
1,10,0.55,CS,723,,0.779,0.882609767,2
1,11,0.11,CS,1673,,0.784,0.885437745,1
1,12,0.55,CSUS,1121,,2.355,1.534600925,2
1,13,0.11,CS,1108,,1.348,1.161034022,1
1,14,0.11,CS,1228,,0.932,0.965401471,1
1,15,0.55,CS,2341,,0.329,0.573585216,2
1,16,0.55,CSUS,1271,,2.041,1.428635713,2
1,17,0.11,CS,1270,,0.251,0.500999002,1
1,18,0.55,CSUS,1101,,1.387,1.177709642,2
1,19,0.11,CS,926,,0.639,0.799374756,1
1,20,0.55,CSUS,755,,2.127,1.458423807,2
1,21,0.11,CS,1171,,0.663,0.814248119,1
1,22,0.55,CS,878,,0.454,0.673795221,2
1,23,0.55,CSUS,1796,,2.003,1.415273825,2
1,24,0.11,CS,1069,,0.296,0.54405882,1
1,25,0.55,CSUS,914,,1.493,1.221883792,2
1,26,0.11,CS,929,,0.852,0.923038461,1
1,27,0.11,CS,878,,0.825,0.908295106,1
1,28,0.11,CS,1408,,0.105,0.324037035,1
1,29,0.55,CSUS,1093,,2.091,1.446029045,2
1,30,0.11,CS,800,,0.16,0.4,1
2,1,0.55,CS,1215,,0.622,0.788669766,2
2,2,0.11,CS,890,,0.135,0.367423461,1
2,3,0.55,CS,947,,0.027,0.164316767,2
2,4,0.11,CS,1107,,0.016,0.126491106,1
2,5,0.11,CS,1074,,0.056,0.236643191,1
2,6,0.55,CS,956,,0.151,0.388587185,2
2,7,0.55,CSUS,912,,2.767,1.663430191,2
2,8,0.11,CS,800,,0.817,0.903880523,1
2,9,0.55,CSUS,847,,1.542,1.241772926,2
2,10,0.55,CS,685,,0.048,0.219089023,2
2,11,0.11,CS,840,,0.384,0.619677335,1
2,12,0.55,CSUS,851,,2.102,1.449827576,2
2,13,0.11,CS,708,,0.068,0.260768096,1
2,14,0.11,CS,793,,0.045,0.212132034,1
2,15,0.55,CS,1162,,0.253,0.502991054,2
2,16,0.55,CSUS,686,,2.226,1.491978552,2
2,17,0.11,CS,640,,0.045,0.212132034,1
2,18,0.55,CSUS,687,,1.997,1.413152504,2
2,19,0.11,CS,773,,0.025,0.158113883,1
2,20,0.55,CSUS,741,,1.277,1.130044247,2
2,21,0.11,CS,690,,0.048,0.219089023,1
2,22,0.55,CS,762,,0.065,0.254950976,2
2,23,0.55,CSUS,884,,0.396,0.629285309,2
2,24,0.11,CS,1414,,0.587,0.766159252,1
2,25,0.55,CSUS,1329,,0.997,0.998498873,2
2,26,0.11,CS,1107,,0.132,0.363318042,1
2,27,0.11,CS,891,,0.102,0.319374388,1
2,28,0.11,CS,873,,0.167,0.408656335,1
2,29,0.55,CSUS,839,,0.207,0.454972527,2
2,30,0.11,CS,749,,0.062,0.248997992,1
4,1,0.11,CS,1696,,0.735,0.85732141,1
4,2,0.55,CS,755,,0.981,0.990454441,2
4,3,0.55,CS,787,,0.022,0.14832397,2
4,4,0.11,CS,629,,1.155,1.074709263,1
4,5,0.11,CS,670,,0.134,0.366060104,1
4,6,0.55,CS,631,,0.875,0.935414347,2
4,7,0.55,CSUS,634,,2.478,1.574166446,2
4,8,0.11,CS,572,,0.085,0.291547595,1
4,9,0.55,CSUS,570,,0.08,0.282842712,2
4,10,0.55,CS,560,,0.776,0.880908622,2
4,11,0.11,CS,576,,1.406,1.185748709,1
4,12,0.55,CSUS,562,,0.643,0.801872808,2
4,13,0.11,CS,526,,1.318,1.148041811,1
4,14,0.11,CS,444,,0.82,0.905538514,1
4,15,0.55,CS,551,,0.427,0.65345237,2
4,16,0.55,CSUS,554,,1.518,1.232071427,2
4,17,0.11,CS,553,,0.132,0.363318042,1
4,18,0.55,CSUS,574,,0.64,0.8,2
4,19,0.11,CS,443,,0.762,0.872926114,1
4,20,0.55,CSUS,472,,1.348,1.161034022,2
4,21,0.11,CS,409,,0.544,0.737563557,1
4,22,0.55,CS,420,,0.067,0.258843582,2
4,23,0.55,CSUS,516,,1.473,1.213672114,2
4,24,0.11,CS,419,,0.114,0.33763886,1
4,25,0.55,CSUS,573,,0.404,0.635609943,2
4,26,0.11,CS,538,,0.938,0.968504001,1
4,27,0.11,CS,530,,0.845,0.919238816,1
4,28,0.11,CS,496,,0.033,0.181659021,1
4,29,0.55,CSUS,487,,1.365,1.168332145,2
4,30,0.11,CS,513,,0.079,0.281069386,1
5,1,0.11,CS,1357,,0.7,0.836660027,1
5,2,0.55,CS,1080,,0.529,0.727323862,2
5,3,0.55,CS,1034,,0.018,0.134164079,2
5,4,0.11,CS,1081,,0.016,0.126491106,1
5,5,0.11,CS,863,,0.019,0.137840488,1
5,6,0.55,CS,731,,0.582,0.762889245,2
5,7,0.55,CSUS,828,,3.747,1.935716921,2
5,8,0.11,CS,761,,0.872,0.933809402,1
5,9,0.55,CSUS,817,,2.809,1.67600716,2
5,10,0.55,CS,667,,1.185,1.088577053,2
5,11,0.11,CS,930,,0.088,0.296647939,1
5,12,0.55,CSUS,690,,2.958,1.719883717,2
5,13,0.11,CS,660,,0.117,0.342052628,1
5,14,0.11,CS,766,,0.057,0.238746728,1
5,15,0.55,CS,681,,0.042,0.204939015,2
5,16,0.55,CSUS,864,,3.248,1.802220852,2
5,17,0.11,CS,739,,0.279,0.528204506,1
5,18,0.55,CSUS,740,,2.877,1.696172161,2
5,19,0.11,CS,1050,,0.129,0.3591657,1
5,20,0.55,CSUS,879,,2.932,1.712308383,2
5,21,0.11,CS,670,,0.245,0.494974747,1
5,22,0.55,CS,593,,0.059,0.242899156,2
5,23,0.55,CSUS,642,,3.663,1.913896549,2
5,24,0.11,CS,826,,0.154,0.392428337,1
5,25,0.55,CSUS,906,,3.045,1.744992837,2
5,26,0.11,CS,1123,,0.207,0.454972527,1
5,27,0.11,CS,685,,0.068,0.260768096,1
5,28,0.11,CS,1168,,0.119,0.344963766,1
5,29,0.55,CSUS,729,,3.157,1.776794867,2
5,30,0.11,CS,891,,0.244,0.493963561,1
6,1,0.55,CS,1107,,1.336,1.155854662,2
6,2,0.11,CS,701,,1.3,1.140175425,1
6,3,0.55,CS,632,,0.352,0.593295879,2
6,4,0.11,CS,604,,0.718,0.847348807,1
6,5,0.55,CS,555,,0.527,0.725947657,2
6,6,0.11,CS,605,,0.189,0.434741302,1
6,7,0.55,CSUS,549,,3.266,1.807207791,2
6,8,0.11,CS,551,,0.689,0.830060239,1
6,9,0.55,CSUS,444,,1.765,1.328533026,2
6,10,0.55,CS,781,,2.322,1.523811012,2
6,11,0.11,CS,599,,0.611,0.78166489,1
6,12,0.55,CSUS,536,,2.244,1.497998665,2
6,13,0.11,CS,790,,1.545,1.242980289,1
6,14,0.11,CS,686,,0.482,0.694262198,1
6,15,0.55,CS,1019,,1.728,1.314534138,2
6,16,0.55,CSUS,979,,2.967,1.722498186,2
6,17,0.11,CS,586,,1.617,1.271613149,1
6,18,0.55,CSUS,1252,,2.528,1.589968553,2
6,19,0.11,CS,651,,0.677,0.822800097,1
6,20,0.55,CSUS,935,,2.328,1.52577849,2
6,21,0.11,CS,635,,1.467,1.211197754,1
6,22,0.55,CS,924,,0.842,0.91760558,2
6,23,0.55,CSUS,911,,2.714,1.647422229,2
6,24,0.11,CS,705,,0.256,0.505964426,1
6,25,0.55,CSUS,1036,,2.984,1.727425831,2
6,26,0.11,CS,656,,1.878,1.370401401,1
6,27,0.11,CS,880,,1.216,1.1027239,1
6,28,0.11,CS,1172,,0.949,0.97416631,1
6,29,0.55,CSUS,1156,,2.69,1.640121947,2
6,30,0.11,CS,999,,1.269,1.126499001,1
7,1,0.11,CS,1197,,0.122,0.349284984,2
7,2,0.55,CS,1688,,1.06,1.029563014,2
7,3,0.55,CS,1672,,2.059,1.434921601,2
7,4,0.11,CS,1361,,5.25,2.291287847,1
7,5,0.55,CS,1440,,0.256,0.505964426,2
7,6,0.11,CS,1438,,3.102,1.761249556,1
7,7,0.55,CSUS,1621,,4.679,2.163099628,2
7,8,0.11,CS,1350,,1.296,1.138419958,1
7,9,0.55,CSUS,1359,,4.556,2.134478859,2
7,10,0.55,CS,1189,,1.824,1.350555441,2
7,11,0.11,CS,1722,,2.473,1.572577502,1
7,12,0.55,CSUS,1180,,3.656,1.912066944,2
7,13,0.11,CS,1257,,2.919,1.708508121,1
7,14,0.11,CS,1180,,0.61,0.781024968,1
7,15,0.55,CS,1187,,3.747,1.935716921,2
7,16,0.55,CSUS,1325,,4.237,2.058397435,2
7,17,0.11,CS,1419,,1.187,1.089495296,1
7,18,0.55,CSUS,1143,,2.45,1.565247584,2
7,19,0.11,CS,1934,,2.113,1.45361618,1
7,20,0.55,CSUS,894,,4.045,2.011218536,2
7,21,0.11,CS,1031,,0.183,0.427784993,1
7,22,0.55,CS,1135,,0.84,0.916515139,2
7,23,0.55,CSUS,567,,0.715,0.845576726,2
7,24,0.11,CS,982,,0.425,0.651920241,1
7,25,0.55,CSUS,1358,,3.704,1.924577876,2
7,26,0.11,CS,1229,,0.331,0.575325995,1
7,27,0.11,CS,1549,,3.619,1.902366947,1
7,28,0.11,CS,1134,,0.271,0.520576603,1
7,29,0.55,CSUS,1006,,2.726,1.651060265,2
7,30,0.11,CS,1307,,0.083,0.288097206,1
8,1,0.55,CS,1659,,0.511,0.71484264,2
8,2,0.11,CS,168,,1.455,1.206233808,2
8,3,0.55,CS,2227,,0.325,0.570087713,2
8,4,0.55,CS,1011,,0.152,0.389871774,2
8,5,0.11,CS,768,,0.5,0.707106781,1
8,6,0.11,CS,1459,,0.021,0.144913767,1
8,7,0.55,CSUS,129,,3.987,1.996747355,2
8,8,0.11,CS,1004,,0.154,0.392428337,1
8,9,0.55,CSUS,1074,,3.083,1.755847374,2
8,10,0.55,CS,1747,,1.445,1.202081528,2
8,11,0.11,CS,822,,1.174,1.083512806,1
8,12,0.55,CSUS,789,,2.221,1.490301983,2
8,13,0.11,CS,707,,1.829,1.352405265,1
8,14,0.11,CS,663,,0.19,0.435889894,1
8,15,0.55,CS,703,,0.186,0.431277173,2
8,16,0.55,CSUS,1185,,3.067,1.751285242,2
8,17,0.11,CS,939,,0.695,0.8336666,1
8,18,0.55,CSUS,720,,3.004,1.733205123,2
8,19,0.11,CS,757,,2.05,1.431782106,1
8,20,0.55,CSUS,636,,2.267,1.505656003,2
8,21,0.11,CS,682,,0.634,0.796241169,1
8,22,0.55,CS,884,,0.077,0.277488739,2
8,23,0.55,CSUS,672,,1.438,1.199166377,2
8,24,0.11,CS,863,,0.138,0.371483512,1
8,25,0.55,CSUS,974,,1.799,1.341268057,2
8,26,0.11,CS,867,,0.047,0.216794834,1
8,27,0.11,CS,1033,,0.036,0.18973666,1
8,28,0.11,CS,972,,0.329,0.573585216,1
8,29,0.55,CSUS,721,,2.699,1.642863354,2
8,30,0.11,CS,652,,2.018,1.420563269,1
9,1,0.11,CS,2077,,0.305,0.552268051,1
9,2,0.55,CS,1450,,0.218,0.466904701,2
9,3,0.11,CS,1363,,0.187,0.432434966,1
9,4,0.55,CS,1050,,0.027,0.164316767,2
9,5,0.55,CS,2007,,0.637,0.798122798,2
9,6,0.11,CS,1582,,0.065,0.254950976,1
9,7,0.55,CSUS,1626,,2.478,1.574166446,2
9,8,0.11,CS,2549,,0.119,0.344963766,1
9,9,0.55,CSUS,1606,,1.76,1.326649916,2
9,10,0.55,CS,1180,,1.324,1.150651989,2
9,11,0.11,CS,1701,,0.868,0.931665176,1
9,12,0.55,CSUS,1226,,2.008,1.417039167,2
9,13,0.11,CS,1586,,0.125,0.353553391,1
9,14,0.11,CS,1330,,0.273,0.522494019,1
9,15,0.55,CS,1115,,0.082,0.286356421,2
9,16,0.55,CSUS,1153,,1.029,1.014396372,2
9,17,0.11,CS,1060,,0.558,0.746993976,1
9,18,0.55,CSUS,1041,,1.622,1.273577638,2
9,19,0.11,CS,1756,,1.486,1.219015997,1
9,20,0.55,CSUS,1220,,0.775,0.880340843,2
9,21,0.11,CS,1154,,0.077,0.277488739,1
9,22,0.55,CS,1724,,0.268,0.517687164,2
9,23,0.55,CSUS,715,,1.354,1.163615057,2
9,24,0.11,CS,493,,0.129,0.3591657,1
9,25,0.55,CSUS,422,,0.187,0.432434966,2
9,26,0.11,CS,675,,0.346,0.588217647,1
9,27,0.11,CS,625,,0.074,0.27202941,1
9,28,0.11,CS,629,,0.024,0.154919334,1
9,29,0.55,CSUS,482,,0.527,0.725947657,2
9,30,0.11,CS,1002,,0.909,0.953414915,1
10,1,0.55,CS,1353,,1.065,1.031988372,2
10,2,0.11,CS,1198,,0.871,0.933273808,1
10,3,0.11,CS,1096,,1.37,1.170469991,1
10,4,0.55,CS,1020,,0.126,0.354964787,2
10,5,0.11,CS,662,,1.348,1.161034022,1
10,6,0.55,CS,798,,0.267,0.516720427,2
10,7,0.55,CSUS,1132,,3.007,1.734070356,2
10,8,0.11,CS,1099,,1.315,1.146734494,1
10,9,0.55,CSUS,578,,2.348,1.532318505,2
10,10,0.55,CS,731,,1.126,1.061131472,2
10,11,0.11,CS,656,,0.785,0.886002257,1
10,12,0.55,CSUS,519,,2.326,1.525122946,2
10,13,0.11,CS,549,,1.37,1.170469991,1
10,14,0.11,CS,1245,,1.026,1.012916581,1
10,15,0.55,CS,650,,1.376,1.173030264,2
10,16,0.55,CSUS,1140,,2.58,1.60623784,2
10,17,0.11,CS,868,,1.089,1.043551628,1
10,18,0.55,CSUS,891,,2.542,1.594365077,2
10,19,0.11,CS,883,,0.054,0.232379001,1
10,20,0.55,CSUS,748,,2.496,1.579873413,2
10,21,0.11,CS,807,,0.868,0.931665176,1
10,22,0.55,CS,696,,0.857,0.925742945,2
10,23,0.55,CSUS,1121,,1.85,1.360147051,2
10,24,0.11,CS,870,,0.755,0.86890736,1
10,25,0.55,CSUS,598,,2.41,1.55241747,2
10,26,0.11,CS,739,,0.091,0.301662063,1
10,27,0.11,CS,358,,1.039,1.019313494,2
10,28,0.11,CS,689,,0.52,0.721110255,1
10,29,0.55,CSUS,708,,2.217,1.488959368,2
10,30,0.11,CS,885,,0.18,0.424264069,1
11,1,0.11,CS,1370,,1.889,1.374408964,1
11,2,0.55,CS,1296,,2.061,1.435618334,2
11,3,0.55,CS,1295,,0.807,0.898331787,2
11,4,0.55,CS,766,,1.399,1.182793304,2
11,5,0.11,CS,898,,0.437,0.661059755,1
11,6,0.11,CS,739,,0.929,0.963846461,1
11,7,0.55,CSUS,653,,4.595,2.143595111,2
11,8,0.11,CS,936,,1.622,1.273577638,1
11,9,0.55,CSUS,937,,3.785,1.945507646,2
11,10,0.55,CS,1158,,1.963,1.401071019,2
11,11,0.11,CS,890,,0.541,0.735527022,1
11,12,0.55,CSUS,555,,3.909,1.977119116,2
11,13,0.11,CS,771,,1.699,1.303456942,1
11,14,0.11,CS,662,,0.798,0.893308457,1
11,15,0.55,CS,515,,1.792,1.338656042,2
11,16,0.55,CSUS,988,,3.477,1.864671553,2
11,17,0.11,CS,572,,0.119,0.344963766,1
11,18,0.55,CSUS,1178,,3.347,1.829480801,2
11,19,0.11,CS,649,,0.531,0.728697468,1
11,20,0.55,CSUS,425,,3.195,1.787456293,2
11,21,0.11,CS,717,,0.756,0.869482605,1
11,22,0.55,CS,542,,2.278,1.509304476,2
11,23,0.55,CSUS,966,,3.004,1.733205123,2
11,24,0.11,CS,578,,0.164,0.404969135,1
11,25,0.55,CSUS,520,,3.268,1.807761046,2
11,26,0.11,CS,643,,0.263,0.512835256,1
11,27,0.11,CS,798,,0.64,0.8,1
11,28,0.11,CS,792,,0.187,0.432434966,1
11,29,0.55,CSUS,1117,,3.596,1.896312211,2
11,30,0.11,CS,769,,0.071,0.266458252,1
12,1,0.55,CS,1699,,1.908,1.381303732,2
12,2,0.11,CS,1114,,1.429,1.19540788,1
12,3,0.11,CS,1060,,1.977,1.40605832,1
12,4,0.55,CS,885,,0.918,0.958123165,2
12,5,0.55,CS,1616,,0.119,0.344963766,2
12,6,0.11,CS,1592,,0.09,0.3,1
12,7,0.55,CSUS,592,,4.222,2.054750593,2
12,8,0.11,CS,1266,,1.786,1.33641311,1
12,9,0.55,CSUS,673,,3.141,1.772286659,2
12,10,0.55,CS,1185,,2.026,1.423376268,2
12,11,0.11,CS,764,,1.608,1.268069399,1
12,12,0.55,CSUS,1053,,3.498,1.870294095,2
12,13,0.11,CS,1768,,1.6,1.264911064,1
12,14,0.11,CS,1655,,0.976,0.987927123,1
12,15,0.55,CS,667,,0.825,0.908295106,2
12,16,0.55,CSUS,888,,3.195,1.787456293,2
12,17,0.11,CS,990,,0.642,0.801249025,1
12,18,0.55,CSUS,686,,3.463,1.860913754,2
12,19,0.11,CS,724,,1.35,1.161895004,1
12,20,0.55,CSUS,0,,3.118,1.765785944,
12,21,0.11,CS,942,,1.573,1.254192968,1
12,22,0.55,CS,833,,0.923,0.96072889,2
12,23,0.55,CSUS,1050,,2.856,1.689970414,2
12,24,0.11,CS,3626,,0.415,0.644204936,1
12,25,0.55,CSUS,966,,3.323,1.822909762,2
12,26,0.11,CS,771,,1.333,1.154556192,1
12,27,0.11,CS,1049,,0.051,0.225831796,1
12,28,0.11,CS,2214,,0.152,0.389871774,1
12,29,0.55,CSUS,941,,3.364,1.834121043,2
12,30,0.11,CS,942,,0.115,0.339116499,1
13,1,0.11,CS,1836,,2.566,1.601873903,1
13,2,0.55,CS,1146,,1.429,1.19540788,2
13,3,0.11,CS,1398,,2.644,1.62603813,1
13,4,0.55,CS,618,,2.27,1.506651917,2
13,5,0.55,CS,652,,2.236,1.495326051,2
13,6,0.11,CS,1557,,1.103,1.050238068,1
13,7,0.55,CSUS,664,,2.996,1.730895722,2
13,8,0.11,CS,1023,,2.449,1.564928113,1
13,9,0.55,CSUS,549,,2.632,1.622343983,2
13,10,0.55,CS,714,,2.891,1.700294092,2
13,11,0.11,CS,846,,1.856,1.362350909,1
13,12,0.55,CSUS,617,,3.126,1.768049773,2
13,13,0.11,CS,752,,2.072,1.439444337,1
13,14,0.11,CS,1063,,1.594,1.262537128,1
13,15,0.55,CS,413,,1.948,1.395707706,2
13,16,0.55,CSUS,676,,2.58,1.60623784,2
13,17,0.11,CS,853,,2.087,1.444645285,1
13,18,0.55,CSUS,598,,2.835,1.683745824,2
13,19,0.11,CS,719,,2.305,1.518222645,1
13,20,0.55,CSUS,526,,2.792,1.670927886,2
13,21,0.11,CS,803,,0.527,0.725947657,1
13,22,0.55,CS,510,,2.766,1.66312958,2
13,23,0.55,CSUS,555,,2.508,1.583666632,2
13,24,0.11,CS,1246,,2.081,1.442567156,1
13,25,0.55,CSUS,646,,2.307,1.518881167,2
13,26,0.11,CS,1021,,2.578,1.605615147,1
13,27,0.11,CS,833,,1.142,1.068644001,1
13,28,0.11,CS,531,,0.166,0.407430976,1
13,29,0.55,CSUS,643,,3.173,1.781291666,2
13,30,0.11,CS,1118,,2.177,1.475466028,1
14,1,0.11,CS,1589,,1.463,1.209545369,1
14,2,0.55,CS,1276,,0.845,0.919238816,2
14,3,0.55,CS,1846,,1.383,1.176010204,2
14,4,0.11,CS,1180,,2.217,1.488959368,1
14,5,0.55,CS,1237,,1.055,1.027131929,2
14,6,0.11,CS,1145,,0.637,0.798122798,1
14,7,0.55,CSUS,1654,,2.864,1.692335664,2
14,8,0.11,CS,1050,,2.14,1.462873884,1
14,9,0.55,CSUS,1191,,2.865,1.692631088,2
14,10,0.55,CS,1415,,1.306,1.14280357,2
14,11,0.11,CS,1374,,0.527,0.725947657,1
14,12,0.55,CSUS,1399,,1.982,1.407835218,2
14,13,0.11,CS,1100,,0.239,0.488876262,1
14,14,0.11,CS,1046,,0.66,0.81240384,1
14,15,0.55,CS,1252,,0.64,0.8,2
14,16,0.55,CSUS,1578,,2.819,1.67898779,2
14,17,0.11,CS,1547,,0.283,0.531977443,1
14,18,0.55,CSUS,1206,,1.954,1.3978555,2
14,19,0.11,CS,1238,,0.189,0.434741302,1
14,20,0.55,CSUS,1339,,2.536,1.592482339,2
14,21,0.11,CS,1251,,0.755,0.86890736,1
14,22,0.55,CS,1539,,0.115,0.339116499,2
14,23,0.55,CSUS,2185,,2.746,1.657105911,2
14,24,0.11,CS,1268,,0.172,0.414728827,1
14,25,0.55,CSUS,1359,,2.383,1.543696861,2
14,26,0.11,CS,1277,,0.457,0.676017751,1
14,27,0.11,CS,1654,,0.106,0.325576412,1
14,28,0.11,CS,1336,,0.382,0.618061486,1
14,29,0.55,CSUS,1724,,3.054,1.747569741,2
14,30,0.11,CS,1909,,0.231,0.480624594,1
15,1,0.11,CS,1342,,0.938,0.968504001,1
15,2,0.55,CS,1639,,0.552,0.742967025,2
15,3,0.55,CS,1475,,0.611,0.78166489,2
15,4,0.11,CS,830,,0.753,0.867755726,1
15,5,0.11,CS,644,,0.337,0.580517011,1
15,6,0.55,CS,951,,0.199,0.44609416,2
15,7,0.55,CSUS,812,,2.241,1.496996994,2
15,8,0.11,CS,670,,0.469,0.684835747,1
15,9,0.55,CSUS,566,,1.513,1.23004065,2
15,10,0.55,CS,687,,0.523,0.723187389,2
15,11,0.11,CS,469,,0.323,0.56833089,1
15,12,0.55,CSUS,588,,1.133,1.064424727,2
15,13,0.11,CS,630,,0.03,0.173205081,1
15,14,0.11,CS,738,,0.495,0.703562364,1
15,15,0.55,CS,715,,0.689,0.830060239,2
15,16,0.55,CSUS,646,,1.44,1.2,2
15,17,0.11,CS,683,,0.057,0.238746728,1
15,18,0.55,CSUS,772,,1.663,1.289573573,2
15,19,0.11,CS,576,,0.268,0.517687164,1
15,20,0.55,CSUS,621,,1.147,1.070980859,2
15,21,0.11,CS,615,,0.128,0.357770876,1
15,22,0.55,CS,453,,0.369,0.607453702,2
15,23,0.55,CSUS,518,,1.135,1.065363788,1
15,24,0.11,CS,862,,0.343,0.585662019,1
15,25,0.55,CSUS,687,,1.515,1.230853363,2
15,26,0.11,CS,990,,0.714,0.844985207,1
15,27,0.11,CS,547,,0.134,0.366060104,1
15,28,0.11,CS,623,,0.775,0.880340843,1
15,29,0.55,CSUS,469,,0.997,0.998498873,2
15,30,0.11,CS,612,,0.076,0.275680975,1
16,1,0.55,CS,1426,,0.274,0.523450093,2
16,2,0.11,CS,1074,,0.404,0.635609943,1
16,3,0.11,CS,985,,0.086,0.293257566,1
16,4,0.55,CS,1081,,0.062,0.248997992,2
16,5,0.11,CS,1410,,0.376,0.613188389,1
16,6,0.55,CS,734,,0.465,0.681909085,2
16,7,0.55,CSUS,823,,1.296,1.138419958,2
16,8,0.11,CS,692,,0.428,0.654217089,1
16,9,0.55,CSUS,711,,0.685,0.827647268,2
16,10,0.55,CS,749,,0.379,0.615629759,2
16,11,0.11,CS,755,,0.361,0.600832755,1
16,12,0.55,CSUS,569,,0.823,0.907193474,2
16,13,0.11,CS,754,,0.515,0.717635005,1
16,14,0.11,CS,985,,0.144,0.379473319,1
16,15,0.55,CS,559,,0.192,0.438178046,2
16,16,0.55,CSUS,684,,0.843,0.918150314,2
16,17,0.11,CS,940,,0.216,0.464758002,1
16,18,0.55,CSUS,767,,0.885,0.940744386,2
16,19,0.11,CS,941,,0.123,0.350713558,1
16,20,0.55,CSUS,1026,,0.657,0.810555365,2
16,21,0.11,CS,871,,0.149,0.386005181,1
16,22,0.55,CS,700,,0.169,0.411096096,2
16,23,0.55,CSUS,729,,0.756,0.869482605,2
16,24,0.11,CS,1288,,0.154,0.392428337,1
16,25,0.55,CSUS,653,,0.718,0.847348807,2
16,26,0.11,CS,1095,,0.048,0.219089023,1
16,27,0.11,CS,722,,0.309,0.555877684,1
16,28,0.11,CS,745,,0.039,0.197484177,1
16,29,0.55,CSUS,674,,0.978,0.988938825,2
16,30,0.11,CS,1145,,0.051,0.225831796,1
17,1,0.55,CS,3625,,2.995,1.73060683,2
17,2,0.11,CS,1534,,1.463,1.209545369,1
17,3,0.11,CS,1354,,1.171,1.082127534,1
17,4,0.55,CS,2523,,1.899,1.378042089,2
17,5,0.11,CS,996,,0.36,0.6,1
17,6,0.55,CS,1724,,0.146,0.382099463,2
17,7,0.55,CSUS,1881,,5.21,2.282542442,2
17,8,0.11,CS,1570,,3.205,1.790251379,1
17,9,0.55,CSUS,988,,1.922,1.386362146,2
17,10,0.55,CS,1235,,1.728,1.314534138,2
17,11,0.11,CS,1907,,1.803,1.342758355,1
17,12,0.55,CSUS,1232,,2.894,1.701176064,1
17,13,0.11,CS,3981,,1.264,1.124277546,1
17,14,0.11,CS,1044,,0.996,0.997997996,1
17,15,0.55,CS,990,,0.93,0.964365076,2
17,16,0.55,CSUS,966,,3.364,1.834121043,2
17,17,0.11,CS,978,,0.473,0.687749955,1
17,18,0.55,CSUS,1455,,1.356,1.16447413,2
17,19,0.11,CS,2351,,0.616,0.784856675,1
17,20,0.55,CSUS,1637,,0.64,0.8,2
17,21,0.11,CS,2468,,2.392,1.546609194,1
17,22,0.55,CS,886,,0.825,0.908295106,2
17,23,0.55,CSUS,1778,,0.852,0.923038461,2
17,24,0.11,CS,1118,,0.239,0.488876262,1
17,25,0.55,CSUS,755,,0.547,0.739594483,2
17,26,0.11,CS,864,,0.189,0.434741302,1
17,27,0.11,CS,1413,,0.19,0.435889894,1
17,28,0.11,CS,841,,0.315,0.561248608,1
17,29,0.55,CSUS,1440,,0.617,0.785493475,2
17,30,0.11,CS,949,,6.489,2.547351566,1
18,1,0.11,CS,2212,,1.325,1.151086443,1
18,2,0.55,CS,1271,,0.921,0.959687449,2
18,3,0.11,CS,1269,,0.762,0.872926114,1
18,4,0.55,CS,1005,,0.524,0.723878443,2
18,5,0.11,CS,1181,,0.514,0.716937933,1
18,6,0.55,CS,839,,0.656,0.809938269,2
18,7,0.55,CSUS,845,,3.405,1.845264209,2
18,8,0.11,CS,949,,1.628,1.275931033,1
18,9,0.55,CSUS,572,,3.439,1.854454098,2
18,10,0.55,CS,1230,,1.663,1.289573573,2
18,11,0.11,CS,1014,,1.071,1.034891299,1
18,12,0.55,CSUS,759,,3.125,1.767766953,2
18,13,0.11,CS,914,,0.997,0.998498873,1
18,14,0.11,CS,1115,,1.188,1.089954127,1
18,15,0.55,CS,716,,1.397,1.181947545,2
18,16,0.55,CSUS,737,,3.233,1.798054504,2
18,17,0.11,CS,1007,,1.513,1.23004065,1
18,18,0.55,CSUS,677,,2.661,1.631257184,2
18,19,0.11,CS,1482,,0.402,0.634034699,1
18,20,0.55,CSUS,548,,2.204,1.484587485,2
18,21,0.11,CS,959,,1.594,1.262537128,1
18,22,0.55,CS,797,,0.956,0.977752525,2
18,23,0.55,CSUS,783,,2.798,1.672722332,2
18,24,0.11,CS,1162,,1.753,1.324009063,1
18,25,0.55,CSUS,473,,2.912,1.706458321,2
18,26,0.11,CS,811,,1.374,1.172177461,1
18,27,0.11,CS,1022,,0.233,0.482700735,1
18,28,0.11,CS,1002,,1.046,1.022741414,1
18,29,0.55,CSUS,585,,2.568,1.60249805,2
18,30,0.11,CS,889,,2.153,1.467310465,1
19,1,0.55,CS,860,,0.256,0.505964426,2
19,2,0.11,CS,1316,,0.057,0.238746728,1
19,3,0.55,CS,790,,0.019,0.137840488,2
19,4,0.55,CS,852,,0.047,0.216794834,2
19,5,0.11,CS,653,,2.549,1.596558799,1
19,6,0.11,CS,821,,0.088,0.296647939,1
19,7,0.55,CSUS,765,,3.276,1.809972375,2
19,8,0.11,CS,740,,0.231,0.480624594,1
19,9,0.55,CSUS,725,,2.674,1.635236986,2
19,10,0.55,CS,795,,0.344,0.586515132,2
19,11,0.11,CS,671,,0.071,0.266458252,1
19,12,0.55,CSUS,623,,1.55,1.24498996,2
19,13,0.11,CS,918,,0.108,0.328633535,1
19,14,0.11,CS,790,,2.438,1.56140962,1
19,15,0.55,CS,620,,1.046,1.022741414,2
19,16,0.55,CSUS,747,,4.528,2.127909773,2
19,17,0.11,CS,673,,4.667,2.16032405,1
19,18,0.55,CSUS,635,,1.741,1.31946959,2
19,19,0.11,CS,758,,3.213,1.79248431,1
19,20,0.55,CSUS,694,,4.025,2.006240265,2
19,21,0.11,CS,681,,0.419,0.647302093,1
19,22,0.55,CS,780,,0.282,0.531036722,2
19,23,0.55,CSUS,753,,2.555,1.598436736,2
19,24,0.11,CS,778,,2.914,1.707044229,1
19,25,0.55,CSUS,737,,3.808,1.951409747,2
19,26,0.11,CS,686,,0.421,0.648845128,1
19,27,0.11,CS,775,,0.096,0.309838668,1
19,28,0.11,CS,728,,3.132,1.769745744,1
19,29,0.55,CSUS,669,,3.48,1.865475811,2
19,30,0.11,CS,737,,0.326,0.570964097,1
20,1,0.55,CS,1463,,1.815,1.347219359,2
20,2,0.11,CS,983,,0.595,0.771362431,1
20,3,0.11,CS,959,,2.162,1.470374102,1
20,4,0.55,CS,1018,,1.538,1.24016128,2
20,5,0.55,CS,829,,1.446,1.202497401,2
20,6,0.11,CS,1065,,1.512,1.229634092,1
20,7,0.55,CSUS,931,,7.099,2.664394866,2
20,8,0.11,CS,806,,1.319,1.148477253,1
20,9,0.55,CSUS,806,,2.758,1.660722734,2
20,10,0.55,CS,628,,2.073,1.439791652,2
20,11,0.11,CS,940,,1.208,1.099090533,1
20,12,0.55,CSUS,1003,,3.553,1.884940317,2
20,13,0.11,CS,941,,1.577,1.255786606,1
20,14,0.11,CS,1110,,1.237,1.112205017,1
20,15,0.55,CS,869,,1.315,1.146734494,2
20,16,0.55,CSUS,957,,2.836,1.684042755,2
20,17,0.11,CS,1081,,0.277,0.526307895,1
20,18,0.55,CSUS,1014,,1.742,1.319848476,2
20,19,0.11,CS,899,,1.501,1.225153052,1
20,20,0.55,CSUS,884,,1.24,1.113552873,2
20,21,0.11,CS,980,,0.935,0.96695398,1
20,22,0.55,CS,906,,1.631,1.277106104,2
20,23,0.55,CSUS,885,,1.86,1.36381817,2
20,24,0.11,CS,898,,0.517,0.71902712,1
20,25,0.55,CSUS,854,,1.945,1.394632568,2
20,26,0.11,CS,1115,,0.196,0.442718872,1
20,27,0.11,CS,1139,,0.83,0.911043358,1
20,28,0.11,CS,968,,1.173,1.083051245,1
20,29,0.55,CSUS,945,,2.252,1.500666519,2
20,30,0.11,CS,1104,,0.099,0.314642654,1