subject,trial,face,trial_type,rt,HandScored_SCR,raw_scr,scr,response,phase
1,1,0.3,CS,1170,,0.065613,0.256150346,1,1
1,2,0.55,CS,1322,,0.019836,0.140840335,2,1
1,3,0.77,CS,836,,0.073242,0.270632592,2,1
1,4,0.11,CS,818,,0.49133,0.700949356,1,1
1,5,1,CS,734,,0.52643,0.72555496,2,1
1,6,0.3,CS,1093,,0,0,1,1
1,7,0.55,CS,867,,0.022888,0.151287805,2,1
1,8,0.11,CS,775,,0,0,1,1
1,9,0.77,CS,923,,0.55847,0.747308504,2,1
1,10,0.77,CS,738,,0,0,2,1
1,11,0.11,CS,601,,0,0,1,1
1,12,1,CS,778,,0.024414,0.1562498,2,1
1,13,1,CS,696,,0.071716,0.267798432,2,1
1,14,0.55,CSUS,1221,,0,0,2,1
1,15,0.3,CS,1079,,0,0,1,1
1,16,0.11,CS,1020,,0,0,1,2
1,17,0.3,CS,1948,,0,0,1,2
1,18,0.55,CSUS,1835,,0,0,2,2
1,19,0.77,CS,1086,,0,0,2,2
1,20,1,CS,1040,,0.65155,0.807186472,2,2
1,21,0.11,CS,796,,0,0,1,2
1,22,0.3,CS,2608,,0,0,1,2
1,23,0.55,CS,996,,0.016785,0.129556937,2,2
1,24,0.77,CS,734,,0.015259,0.123527325,2,2
1,25,1,CS,917,,0,0,2,2
1,26,0.55,CSUS,1907,,0,0,2,2
1,27,0.11,CS,721,,0,0,1,2
1,28,1,CS,769,,0,0,2,2
1,29,0.3,CS,2026,,0,0,2,2
1,30,0.3,CS,756,,0,0,1,3
1,31,0.55,CS,1427,,0,0,2,3
1,32,0.11,CS,954,,0,0,1,3
1,33,0.77,CS,2577,,0.050354,0.22439697,2,2
1,34,1,CS,698,,0,0,2,3
1,35,0.77,CS,796,,0,0,2,3
1,36,1,CS,1193,,0,0,2,3
1,37,0.3,CS,1494,,0,0,1,3
1,38,0.3,CS,825,,0,0,1,3
1,39,0.11,CS,901,,0,0,1,3
1,40,0.55,CS,964,,0.064087,0.253154103,2,3
1,41,0.55,CS,917,,0,0,2,3
1,42,1,CS,1256,,0,0,2,3
1,43,0.77,CS,915,,0,0,2,3
1,44,0.77,CS,716,,0,0,2,3
1,45,0.11,CS,782,,0,0,1,3
2,1,0.3,CS,1275,,0,0,2,1
2,2,0.77,CS,588,,0,0,2,1
2,3,0.3,CS,2969,,0,0,2,1
2,4,1,CS,676,,0,0,2,1
2,5,0.55,CSUS,1517,,0,0,2,1
2,6,0.11,CS,2099,,0,0,1,1
2,7,0.3,CS,1430,,0,0,2,1
2,8,0.55,CSUS,1090,,0,0,2,1
2,9,0.77,CS,1579,,0,0,2,1
2,10,1,CS,614,,0,0,2,1
2,11,0.11,CS,938,,0,0,1,1
2,12,0.3,CS,2014,,0,0,2,2
2,13,0.55,CS,1103,,0,0,2,1
2,14,0.77,CS,946,,0,0,2,1
2,15,1,CS,806,,0,0,2,1
2,16,0.55,CS,782,,0,0,2,2
2,17,0.3,CS,1874,,0,0,2,2
2,18,0.77,CS,884,,0,0,2,2
2,19,1,CS,658,,0,0,2,2
2,20,0.55,CSUS,1152,,0,0,2,2
2,21,0.11,CS,1182,,0,0,1,1
2,22,0.3,CS,1826,,0,0,2,2
2,23,0.77,CS,671,,0,0,2,2
2,24,1,CS,728,,0,0,2,2
2,25,0.11,CS,920,,0,0,1,2
2,26,0.55,CS,1011,,0,0,2,2
2,27,0.3,CS,1309,,0,0,2,3
2,28,0.77,CS,908,,0,0,2,2
2,29,0.3,CS,1192,,0,0,2,3
2,30,1,CS,713,,0,0,2,2
2,31,0.11,CS,962,,0,0,1,2
2,32,1,CS,598,,0,0,2,3
2,33,0.77,CS,819,,0,0,2,3
2,34,0.55,CS,736,,0,0,2,3
2,35,0.11,CS,837,,0,0,1,2
2,36,0.77,CS,611,,0,0,2,3
2,37,0.55,CS,614,,0,0,2,3
2,38,0.3,CS,1456,,0,0,2,3
2,39,0.11,CS,3293,,0,0,2,3
2,40,1,CS,624,,0,0,2,3
2,41,0.77,CS,657,,0,0,2,3
2,42,0.55,CS,1064,,0,0,2,3
2,43,1,CS,622,,0,0,2,3
2,44,0.11,CS,1108,,0,0,1,3
2,45,0.11,CS,1305,,0,0,1,3
3,1,1,CS,797,,1.6296,1.276557872,2,1
3,2,0.55,CS,1090,,0.22888,0.478414047,2,1
3,3,0.11,CS,756,,0,0,1,1
3,4,0.77,CS,711,,0.31738,0.563364891,2,1
3,5,0.3,CS,1154,,0.091553,0.302577263,1,1
3,6,0.77,CS,773,,0.914,0.956033472,2,1
3,7,0.55,CSUS,1231,,0,0,2,1
3,8,0.3,CS,1742,,0,0,1,1
3,9,0.11,CS,881,,0,0,1,1
3,10,1,CS,886,,0,0,2,1
3,11,0.3,CS,1139,,0.041199,0.202975368,1,1
3,12,0.77,CS,729,,1.503,1.225969005,2,1
3,13,0.55,CS,616,,0.40741,0.638286769,2,1
3,14,0.11,CS,737,,0.027466,0.165728694,1,1
3,15,1,CS,729,,0,0,2,1
3,16,0.11,CS,785,,0,0,1,2
3,17,0.3,CS,1062,,0,0,1,2
3,18,0.55,CSUS,731,,0.57373,0.757449668,2,2
3,19,0.77,CS,888,,0,0,2,2
3,20,1,CS,851,,0,0,2,2
3,21,0.11,CS,822,,0,0,1,2
3,22,0.3,CS,1994,,0,0,2,2
3,23,0.55,CS,877,,0.51117,0.714961537,2,2
3,24,0.77,CS,626,,0,0,2,2
3,25,1,CS,711,,0.14801,0.384720678,2,2
3,26,0.77,CS,842,,0.27618,0.525528306,2,2
3,27,0.55,CS,1439,,0,0,2,2
3,28,1,CS,691,,0,0,2,2
3,29,1,CS,632,,0,0,2,3
3,30,0.77,CS,683,,0,0,2,3
3,31,0.55,CSUS,1137,,0,0,2,3
3,32,0.11,CS,616,,0,0,1,2
3,33,0.3,CS,749,,0,0,2,2
3,34,0.11,CS,574,,0,0,1,3
3,35,0.3,CS,956,,0,0,2,3
3,36,1,CS,691,,0,0,2,3
3,37,0.3,CS,1511,,0,0,1,3
3,38,0.3,CS,970,,0,0,1,3
3,39,1,CS,595,,0,0,2,3
3,40,0.77,CS,693,,0,0,2,3
3,41,0.55,CS,1106,,0,0,2,3
3,42,0.77,CS,649,,0.18768,0.433220498,2,3
3,43,0.55,CS,1189,,0.84991,0.921905635,2,3
3,44,0.11,CS,683,,0,0,1,3
3,45,0.11,CS,621,,0,0,1,3
4,1,0.55,CS,824,,1.0223,1.011088522,2,1
4,2,0.77,CS,654,,0.013733,0.117187883,2,1
4,3,1,CS,845,,0.70801,0.841433301,2,1
4,4,0.11,CS,879,,0,0,1,1
4,5,0.3,CS,1171,,0.07019,0.264933954,1,1
4,6,0.77,CS,1057,,0.18768,0.433220498,2,1
4,7,0.77,CS,518,,0.053406,0.231097382,2,1
4,8,0.55,CS,3424,,0,0,2,1
4,9,0.11,CS,646,,0.11597,0.340543683,1,1
4,10,0.55,CSUS,1514,,0,0,2,1
4,11,0.11,CS,1439,,0,0,1,1
4,12,1,CS,654,,0.45319,0.67319388,2,1
4,13,1,CS,686,,0,0,2,1
4,14,0.3,CS,937,,0,0,1,1
4,15,0.3,CS,729,,0,0,1,1
4,16,0.11,CS,765,,0,0,1,2
4,17,0.3,CS,1000,,0,0,1,2
4,18,0.55,CSUS,848,,0,0,1,2
4,19,0.77,CS,1067,,0,0,2,2
4,20,1,CS,827,,0,0,2,2
4,21,0.11,CS,884,,0,0,1,2
4,22,0.3,CS,3564,,0,0,1,2
4,23,0.55,CS,4126,,0.51727,0.71921485,2,2
4,24,0.77,CS,1026,,0,0,2,2
4,25,1,CS,798,,0,0,2,2
4,26,0.3,CS,1352,,0,0,1,2
4,27,0.77,CS,982,,0.048828,0.220970586,2,2
4,28,0.77,CS,909,,0,0,2,3
4,29,0.11,CS,879,,0,0,1,2
4,30,0.55,CSUS,1022,,0,0,1,2
4,31,1,CS,841,,0,0,2,2
4,32,0.11,CS,832,,0,0,1,3
4,33,1,CS,721,,0,0,2,3
4,34,0.3,CS,1502,,0,0,1,3
4,35,0.55,CS,0,,0,0,,3
4,36,0.55,CS,1295,,0,0,2,3
4,37,0.3,CS,1221,,0,0,1,3
4,38,1,CS,670,,0,0,2,3
4,39,0.3,CS,1189,,0,0,1,3
4,40,0.11,CS,841,,0.15411,0.392568465,1,3
4,41,0.55,CS,2366,,0,0,2,3
4,42,1,CS,650,,0,0,2,3
4,43,0.11,CS,950,,0,0,1,3
4,44,0.77,CS,850,,0,0,2,3
4,45,0.77,CS,913,,0,0,2,3
5,1,0.55,CS,801,,0,0,2,1
5,2,0.11,CS,598,,0,0,1,1
5,3,1,CS,648,,0,0,2,1
5,4,0.3,CS,673,,0.56,0.748331477,1,1
5,5,0.77,CS,719,,0,0,2,1
5,6,0.55,CSUS,701,,0,0,2,1
5,7,0.55,CS,615,,0,0,2,1
5,8,0.11,CS,596,,0,0,1,1
5,9,0.3,CS,638,,0,0,1,1
5,10,1,CS,586,,1.3931,1.180296573,2,1
5,11,1,CS,630,,0.9079,0.952837867,2,1
5,12,0.3,CS,565,,0,0,1,1
5,13,0.77,CS,781,,1.4771,1.215360029,2,1
5,14,0.77,CS,562,,0.34332,0.58593515,2,1
5,15,0.11,CS,744,,0,0,1,1
5,16,0.11,CS,650,,0,0,1,2
5,17,0.3,CS,577,,0,0,1,2
5,18,0.55,CSUS,573,,0.64,0.8,2,2
5,19,0.77,CS,658,,0,0,2,2
5,20,1,CS,659,,0,0,2,2
5,21,0.11,CS,379,,0,0,1,2
5,22,0.3,CS,497,,0,0,1,2
5,23,0.55,CS,643,,0,0,2,2
5,24,0.77,CS,704,,0,0,2,2
5,25,1,CS,600,,0,0,2,2
5,26,0.55,CS,1977,,0,0,1,2
5,27,0.11,CS,770,,0,0,1,2
5,28,0.11,CS,913,,0,0,1,3
5,29,0.77,CS,955,,0,0,2,2
5,30,0.55,CSUS,870,,0,0,2,3
5,31,1,CS,671,,0,0,2,2
5,32,1,CS,653,,0,0,2,3
5,33,0.77,CS,700,,0,0,2,3
5,34,0.3,CS,825,,0,0,1,2
5,35,0.3,CS,545,,0,0,1,3
5,36,0.11,CS,869,,0,0,1,3
5,37,0.77,CS,730,,0.32654,0.571436786,2,3
5,38,1,CS,389,,0,0,2,3
5,39,0.55,CS,1447,,0,0,2,3
5,40,0.3,CS,735,,0.015259,0.123527325,1,3
5,41,1,CS,597,,0,0,2,3
5,42,0.11,CS,674,,0,0,1,3
5,43,0.3,CS,1139,,0,0,1,3
5,44,0.55,CS,953,,0,0,2,3
5,45,0.77,CS,701,,0.1236,0.351567917,2,3
6,1,0.11,CS,662,,0,0,1,1
6,2,0.3,CS,1764,,0,0,2,1
6,3,1,CS,617,,0,0,2,1
6,4,0.55,CS,2057,,0.030518,0.174694018,2,1
6,5,0.77,CS,769,,0,0,2,1
6,6,1,CS,614,,0,0,2,1
6,7,0.55,CSUS,1168,,0,0,1,1
6,8,0.3,CS,1209,,0.065613,0.256150346,1,1
6,9,0.77,CS,720,,0,0,2,1
6,10,0.11,CS,734,,0,0,1,1
6,11,1,CS,649,,0,0,2,1
6,12,0.77,CS,515,,0.0030518,0.055243099,2,1
6,13,0.11,CS,708,,0.13123,0.362256815,1,1
6,14,0.55,CS,659,,1.0925,1.045227248,1,1
6,15,0.3,CS,619,,0.12207,0.349385174,1,1
6,16,0.11,CS,732,,0.27161,0.521162163,1,2
6,17,0.3,CS,832,,0,0,1,2
6,18,0.55,CSUS,1005,,0.315,0.561248608,2,2
6,19,0.77,CS,617,,0,0,2,2
6,20,1,CS,523,,0,0,2,2
6,21,0.11,CS,850,,0,0,1,2
6,22,0.3,CS,731,,0,0,1,2
6,23,0.55,CS,1426,,0.54016,0.734955781,1,2
6,24,0.77,CS,740,,0.13275,0.364348734,2,2
6,25,1,CS,526,,0,0,2,2
6,26,0.11,CS,793,,0.0076294,0.087346437,1,2
6,27,0.3,CS,840,,0.086975,0.294915242,1,2
6,28,0.3,CS,785,,0,0,1,3
6,29,0.55,CSUS,1070,,0,0,1,2
6,30,1,CS,629,,0,0,2,2
6,31,0.55,CS,790,,0,0,1,3
6,32,0.11,CS,744,,0,0,1,3
6,33,0.77,CS,989,,0,0,2,2
6,34,1,CS,602,,0,0,2,3
6,35,0.77,CS,1173,,0,0,2,3
6,36,0.3,CS,684,,0,0,1,3
6,37,0.3,CS,753,,0,0,1,3
6,38,1,CS,869,,0,0,2,3
6,39,0.11,CS,670,,0,0,1,3
6,40,0.55,CS,922,,0,0,1,3
6,41,0.11,CS,828,,0,0,1,3
6,42,0.55,CS,1034,,0,0,1,3
6,43,0.77,CS,833,,0,0,2,3
6,44,1,CS,1032,,0,0,2,3
6,45,0.77,CS,1269,,0,0,2,3
7,1,1,NaN,NaN,,0,0,NaN,1
7,2,0.3,CS,788,,0,0,2,1
7,3,0.11,CS,572,,0,0,1,1
7,4,0.77,CS,1496,,0,0,1,1
7,5,0.55,CS,569,,0,0,2,1
7,6,1,CS,938,,0.04425,0.21035684,2,1
7,7,0.3,CS,832,,0,0,2,1
7,8,1,CS,2145,,0,0,2,1
7,9,0.55,CS,1002,,0,0,2,1
7,10,0.11,CS,1761,,0,0,2,1
7,11,0.11,CS,1136,,0,0,1,1
7,12,0.77,CS,987,,0,0,1,1
7,13,0.3,CS,637,,0,0,2,1
7,14,0.77,CS,1228,,0,0,2,1
7,15,0.55,CS,743,,0,0,2,1
7,16,0.11,CSUS,843,,0,0,2,2
7,17,0.3,CS,754,,0,0,1,2
7,18,0.55,CS,928,,0,0,2,2
7,19,0.77,CSUS,867,,0,0,2,2
7,20,1,CS,840,,0.92621,0.962398047,2,2
7,21,0.11,CS,718,,0,0,2,2
7,22,0.3,CS,1026,,0,0,1,2
7,23,0.55,CS,1008,,0,0,2,2
7,24,0.77,CS,573,,0,0,2,2
7,25,1,CS,739,,0,0,2,2
7,26,0.3,CS,815,,0,0,2,2
7,27,1,CS,1382,,0,0,2,2
7,28,0.55,CS,760,,0,0,2,2
7,29,0.77,CSUS,801,,0,0,2,2
7,30,1,CS,657,,0,0,2,3
7,31,0.3,CS,580,,0,0,2,3
7,32,0.55,CS,981,,0,0,2,3
7,33,0.11,CS,808,,0,0,2,2
7,34,0.11,CS,772,,0,0,1,3
7,35,0.77,CS,830,,0,0,1,3
7,36,0.3,CS,607,,0,0,2,3
7,37,0.55,CS,942,,0,0,2,3
7,38,0.55,CS,817,,0,0,2,3
7,39,0.3,CS,737,,0,0,2,3
7,40,0.77,CS,1205,,0.0030518,0.055243099,2,3
7,41,1,CS,798,,0,0,2,3
7,42,1,CS,737,,0,0,2,3
7,43,0.77,CS,763,,0,0,2,3
7,44,0.11,CS,533,,0,0,2,3
7,45,0.11,CS,1596,,0,0,1,3
8,1,1,CS,944,,1.3855,1.17707264,2,1
8,2,0.11,CS,922,,0,0,1,1
8,3,0.3,CS,964,,0.55542,0.745265054,1,1
8,4,0.55,CS,1020,,1.3855,1.17707264,2,1
8,5,0.77,CS,853,,1.0864,1.042305138,2,1
8,6,0.77,CS,657,,1.2695,1.126720906,2,1
8,7,0.55,CSUS,760,,1.6708,1.292594291,2,1
8,8,0.11,CS,724,,0,0,1,1
8,9,0.11,CS,865,,0,0,1,1
8,10,1,CS,928,,2.6794,1.63688729,2,1
8,11,0.3,CS,939,,0.41351,0.643047432,1,1
8,12,0.3,CS,1231,,0,0,1,1
8,13,0.77,CS,889,,4.0955,2.023734172,2,1
8,14,0.55,CS,635,,1.4954,1.222865487,2,1
8,15,1,CS,1469,,0,0,2,1
8,16,0.11,CS,888,,0,0,1,2
8,17,0.3,CS,814,,0,0,1,2
8,18,0.55,CSUS,2527,,0,0,2,2
8,19,0.77,CS,985,,1.2558,1.120624826,2,2
8,20,1,CS,903,,0,0,2,2
8,21,0.11,CS,747,,0,0,1,2
8,22,0.3,CS,1051,,1.741,1.31946959,1,2
8,23,0.55,CS,2151,,2.5101,1.584329511,2,2
8,24,0.77,CS,975,,0.84991,0.921905635,2,2
8,25,1,CS,707,,1.0559,1.027569949,2,2
8,26,0.11,CS,679,,0,0,1,2
8,27,0.77,CS,948,,2.0782,1.441596337,2,2
8,28,0.55,CS,844,,1.3214,1.14952164,2,2
8,29,1,CS,1000,,1.2619,1.123343224,2,2
8,30,1,CS,696,,1.2711,1.127430707,2,3
8,31,0.3,CS,1086,,0,0,1,2
8,32,0.11,CS,853,,0,0,1,3
8,33,0.77,CS,783,,2.5803,1.606331224,2,3
8,34,0.3,CS,1145,,0,0,1,3
8,35,0.55,CSUS,1497,,1.06,1.029563014,2,3
8,36,0.55,CS,1162,,0,0,2,3
8,37,0.3,CS,1113,,0,0,1,3
8,38,0.3,CS,1657,,0.55237,0.743215985,1,3
8,39,0.77,CS,966,,1.091,1.044509454,2,3
8,40,0.55,CS,2397,,0,0,2,3
8,41,0.77,CS,821,,0.9201,0.959218432,2,3
8,42,0.11,CS,827,,0,0,1,3
8,43,1,CS,999,,1.1719,1.082543302,2,3
8,44,1,CS,784,,0.31128,0.557924726,2,3
8,45,0.11,CS,1043,,0,0,1,3
9,1,0.77,CS,1310,,0,0,2,1
9,2,0.3,CS,790,,0,0,1,1
9,3,1,CS,1159,,0,0,2,1
9,4,0.11,CS,898,,0,0,1,1
9,5,0.55,CS,1313,,0,0,2,1
9,6,0.55,CS,1034,,0,0,2,1
9,7,0.77,CS,911,,0,0,2,1
9,8,0.11,CS,732,,0.76599,0.875208547,1,1
9,9,0.3,CS,891,,0.028992,0.170270373,1,1
9,10,0.55,CSUS,1178,,0,0,2,1
9,11,0.11,CS,996,,0,0,1,1
9,12,1,CS,803,,0,0,2,1
9,13,0.77,CS,681,,0,0,2,1
9,14,1,CS,736,,0,0,2,1
9,15,0.3,CS,704,,0.30823,0.555184654,1,1
9,16,0.11,CS,852,,0,0,1,2
9,17,0.3,CS,773,,0,0,1,2
9,18,0.55,CSUS,1140,,0,0,2,2
9,19,0.77,CS,1236,,0,0,2,2
9,20,1,CS,1452,,0,0,2,2
9,21,0.11,CS,744,,0,0,1,2
9,22,0.3,CS,781,,0,0,1,2
9,23,0.55,CS,932,,0,0,2,2
9,24,0.77,CS,1048,,0,0,2,2
9,25,1,CS,1041,,0,0,2,2
9,26,0.3,CS,986,,0,0,1,2
9,27,0.11,CS,735,,0,0,1,2
9,28,0.55,CS,823,,1.6632,1.289651116,2,2
9,29,0.3,CS,851,,0,0,1,3
9,30,0.77,CS,988,,0,0,2,2
9,31,0.77,CS,745,,0,0,2,3
9,32,0.11,CS,809,,0,0,1,3
9,33,1,CS,678,,0,0,2,2
9,34,0.55,CSUS,853,,0.012,0.109544512,2,3
9,35,1,CS,990,,0,0,2,3
9,36,0.11,CS,1079,,0,0,1,3
9,37,1,CS,877,,0,0,2,3
9,38,1,CS,644,,0,0,2,3
9,39,0.3,CS,862,,0,0,1,3
9,40,0.77,CS,1090,,0,0,2,3
9,41,0.77,CS,994,,0,0,2,3
9,42,0.55,CS,1116,,1.7868,1.336712385,2,3
9,43,0.55,CS,866,,0.76904,0.876949257,2,3
9,44,0.3,CS,997,,0,0,1,3
9,45,0.11,CS,1034,,0,0,1,3
10,1,0.55,CS,1179,,0.086975,0.294915242,2,1
10,2,0.77,CS,957,,0.07782,0.278962363,2,1
10,3,1,CS,2116,,0.24109,0.491009165,2,1
10,4,0.11,CS,969,,0.71716,0.846852998,1,1
10,5,0.3,CS,888,,0.23346,0.483176986,1,1
10,6,1,CS,688,,0.31586,0.562014235,2,1
10,7,0.3,CS,936,,0.3006,0.548270006,1,1
10,8,0.3,CS,965,,0.0015259,0.03906277,1,1
10,9,0.55,CSUS,1509,,0,0,2,1
10,10,0.11,CS,809,,0,0,1,1
10,11,0.77,CS,739,,0.44098,0.66406325,2,1
10,12,0.77,CS,846,,0.36774,0.606415699,2,1
10,13,0.11,CS,1236,,0,0,1,1
10,14,0.55,CS,939,,0.27008,0.519692217,2,1
10,15,1,CS,662,,0.26703,0.516749456,2,1
10,16,0.11,CS,880,,0,0,1,2
10,17,0.3,CS,1152,,0.05188,0.227771816,1,2
10,18,0.55,CSUS,1230,,0.158,0.397492138,2,2
10,19,0.77,CS,1175,,0,0,2,2
10,20,1,CS,767,,0,0,2,2
10,21,0.11,CS,716,,0,0,1,2
10,22,0.3,CS,1564,,0.062561,0.25012197,1,2
10,23,0.55,CS,984,,0.66071,0.812840698,2,2
10,24,0.77,CS,680,,0,0,2,2
10,25,1,CS,782,,0.41504,0.644235982,2,2
10,26,0.77,CS,797,,0.46082,0.678837241,2,2
10,27,0.55,CS,1658,,0.059509,0.243944666,2,2
10,28,0.11,CS,2023,,0,0,1,2
10,29,0.11,CS,985,,0.019836,0.140840335,1,3
10,30,0.3,CS,1074,,0,0,1,2
10,31,0.77,CS,863,,0,0,2,3
10,32,0.3,CS,1170,,0.012207,0.110485293,1,3
10,33,0.55,CSUS,981,,0.238,0.487852437,2,3
10,34,1,CS,1117,,0,0,2,2
10,35,1,CS,914,,0.26093,0.510813077,2,3
10,36,0.77,CS,708,,0.083923,0.289694667,2,3
10,37,0.3,CS,1063,,0,0,1,3
10,38,0.11,CS,1192,,0.013733,0.117187883,1,3
10,39,1,CS,884,,0.33264,0.576749512,2,3
10,40,0.55,CS,1058,,0.19073,0.436726459,2,3
10,41,0.77,CS,1245,,0.15106,0.38866438,2,3
10,42,0.55,CS,3338,,0,0,2,3
10,43,0.11,CS,1613,,0,0,1,3
10,44,1,CS,1307,,0.18768,0.433220498,2,3
10,45,0.3,CS,1735,,0,0,1,3
11,1,0.77,CS,985,,0,0,1,1
11,2,0.3,CS,705,,0.25024,0.500239942,1,1
11,3,1,CS,844,,0.25024,0.500239942,2,1
11,4,0.55,CS,1003,,0,0,2,1
11,5,0.11,CS,1758,,0,0,1,1
11,6,1,CS,695,,0.27618,0.525528306,2,1
11,7,0.11,CS,752,,0,0,1,1
11,8,0.55,CSUS,1244,,0.082,0.286356421,2,1
11,9,0.77,CS,3514,,0,0,2,1
11,10,1,CS,1129,,0.068665,0.262040073,2,1
11,11,0.11,CS,892,,0,0,1,1
11,12,0.55,CS,1746,,0.59967,0.774383626,2,1
11,13,0.3,CS,1009,,1.001,1.000499875,1,1
11,14,0.3,CS,1114,,0.11597,0.340543683,1,1
11,15,0.77,CS,664,,0.028992,0.170270373,2,1
11,16,0.11,CS,667,,0.19226,0.438474629,1,2
11,17,0.3,CS,663,,0.20294,0.450488624,1,2
11,18,0.55,CSUS,643,,0.26,0.509901951,2,2
11,19,0.77,CS,1253,,0,0,2,2
11,20,1,CS,1431,,0.45319,0.67319388,2,2
11,21,0.11,CS,1357,,0.38147,0.617632577,1,2
11,22,0.3,CS,736,,0,0,1,2
11,23,0.55,CS,1312,,0.98877,0.994369147,2,2
11,24,0.77,CS,623,,0.10223,0.319734265,2,2
11,25,1,CS,601,,0,0,2,2
11,26,1,CS,997,,0.383,0.618869938,2,2
11,27,0.77,CS,651,,0.57068,0.75543365,2,2
11,28,0.55,CSUS,757,,0,0,2,2
11,29,0.3,CS,407,,0,0,1,2
11,30,0.11,CS,637,,0.048828,0.220970586,1,2
11,31,0.11,CS,1124,,0,0,1,3
11,32,0.55,CS,764,,0.41656,0.645414595,2,3
11,33,1,CS,544,,0.50201,0.70852664,2,3
11,34,0.77,CS,1247,,0.50201,0.70852664,2,3
11,35,0.3,CS,635,,0,0,1,3
11,36,0.3,CS,718,,0.26093,0.510813077,1,3
11,37,0.77,CS,364,,0.26398,0.51378984,2,3
11,38,1,CS,1168,,0.47302,0.687764495,2,3
11,39,1,CS,3323,,0.23499,0.484757671,2,3
11,40,0.55,CS,1741,,0.69885,0.835972488,2,3
11,41,0.11,CS,1221,,0.0061035,0.0781249,1,3
11,42,0.3,CS,1608,,0.34637,0.588532072,1,3
11,43,0.77,CS,2257,,0.29755,0.545481439,2,3
11,44,0.55,CS,1815,,0.28992,0.538442197,2,3
11,45,0.11,CS,709,,0.032043,0.179005587,1,3
12,1,0.11,CS,770,,2.5543,1.598217757,1,1
12,2,1,CS,571,,1.8402,1.356539716,2,1
12,3,0.55,CS,746,,0,0,2,1
12,4,0.3,CS,1052,,1.9257,1.387695932,1,1
12,5,0.77,CS,603,,1.3641,1.167946917,2,1
12,6,0.3,CS,818,,0.2594,0.509313263,1,1
12,7,1,CS,735,,1.9409,1.393161871,2,1
12,8,0.11,CS,668,,2.0386,1.427795504,1,1
12,9,0.77,CS,609,,4.8935,2.212125675,2,1
12,10,0.3,CS,692,,1.0635,1.031261364,1,1
12,11,0.77,CS,598,,3.1693,1.780252791,2,1
12,12,0.55,CSUS,767,,1.4191,1.191259837,2,1
12,13,1,CS,631,,0.32806,0.572765222,2,1
12,14,0.55,CS,880,,5.3421,2.311298336,2,1
12,15,0.11,CS,510,,0,0,1,1
12,16,0.11,CS,636,,0,0,1,2
12,17,0.3,CS,2224,,0,0,1,2
12,18,0.55,CSUS,711,,3.28,1.811077028,2,2
12,19,0.77,CS,971,,0,0,2,2
12,20,1,CS,644,,0.097656,0.3124996,2,2
12,21,0.11,CS,683,,3.1799,1.783227411,1,2
12,22,0.3,CS,670,,0,0,1,2
12,23,0.55,CS,671,,0,0,2,2
12,24,0.77,CS,538,,0,0,2,2
12,25,1,CS,651,,0,0,2,2
12,26,0.3,CS,674,,0,0,1,2
12,27,0.77,CS,665,,7.2342,2.689646817,2,2
12,28,0.11,CS,742,,0,0,1,2
12,29,1,CS,593,,0,0,2,2
12,30,0.77,CS,610,,5.7571,2.399395757,2,3
12,31,0.3,CS,769,,0,0,1,3
12,32,0.55,CS,1216,,3.1982,1.788351196,2,2
12,33,0.55,CSUS,721,,0,0,2,3
12,34,0.11,CS,627,,0,0,1,3
12,35,1,CS,620,,0,0,2,3
12,36,0.11,CS,621,,0,0,1,3
12,37,0.11,CS,572,,0,0,1,3
12,38,0.55,CS,500,,5.3833,2.320193957,2,3
12,39,0.3,CS,960,,0,0,1,3
12,40,0.77,CS,652,,5.9845,2.446323773,2,3
12,41,0.77,CS,657,,1.4206,1.191889257,2,3
12,42,0.55,CS,1016,,1.1383,1.06691143,2,3
12,43,0.3,CS,803,,0,0,1,3
12,44,1,CS,637,,0,0,2,3
12,45,1,CS,685,,0.15564,0.394512357,2,3
13,1,0.55,CS,507,,0.52643,0.72555496,2,1
13,2,1,CS,720,,0,0,2,1
13,3,0.77,CS,727,,0.6134,0.78319857,2,1
13,4,0.11,CS,486,,0.73547,0.857595476,1,1
13,5,0.3,CS,897,,0,0,1,1
13,6,0.77,CS,389,,0,0,2,1
13,7,0.77,CS,620,,0.74615,0.863799745,2,1
13,8,0.3,CS,744,,0.083923,0.289694667,1,1
13,9,0.55,CS,1291,,0,0,2,1
13,10,0.3,CS,695,,0.18005,0.42432299,1,1
13,11,1,CS,638,,0.54016,0.734955781,2,1
13,12,0.11,CS,892,,0,0,1,1
13,13,0.11,CS,857,,0,0,1,1
13,14,1,CS,668,,0.39825,0.631070519,2,1
13,15,0.55,CSUS,2096,,0,0,2,1
13,16,0.11,CS,554,,0,0,1,2
13,17,0.3,CS,1165,,0,0,2,2
13,18,0.55,CSUS,1097,,0.2655,0.515266921,2,2
13,19,0.77,CS,1404,,0.11292,0.336035712,2,2
13,20,1,CS,641,,0.14496,0.380736129,2,2
13,21,0.11,CS,667,,0.035095,0.187336595,1,2
13,22,0.3,CS,1938,,0,0,2,2
13,23,0.55,CS,807,,1.0178,1.008860744,2,2
13,24,0.77,CS,671,,0.48065,0.693289261,2,2
13,25,1,CS,743,,1.4526,1.205238566,2,2
13,26,0.77,CS,670,,0,0,2,2
13,27,0.11,CS,712,,0.048828,0.220970586,1,2
13,28,1,CS,716,,0.52338,0.723450067,2,2
13,29,0.77,CS,710,,0.63171,0.794801862,2,3
13,30,0.11,CS,803,,0.042725,0.206700266,1,3
13,31,0.55,CSUS,882,,0.54016,0.734955781,2,2
13,32,0.55,CS,1025,,0,0,2,3
13,33,0.3,CS,723,,0,0,1,2
13,34,1,CS,639,,0.32501,0.570096483,2,3
13,35,0.3,CS,1337,,0.19989,0.447090595,2,3
13,36,0.3,CS,712,,0.33569,0.579387608,2,3
13,37,0.77,CS,1077,,0.43488,0.65945432,2,3
13,38,0.11,CS,837,,0,0,2,3
13,39,1,CS,768,,0,0,2,3
13,40,0.11,CS,947,,0,0,1,3
13,41,1,CS,1043,,0,0,2,3
13,42,0.3,CS,1117,,0.4303,0.65597256,2,3
13,43,0.55,CS,1351,,0.62103,0.788054567,2,3
13,44,0.77,CS,968,,0.32196,0.567415192,2,3
13,45,0.55,CS,776,,0.8606,0.927685291,2,3
15,1,1,CS,1329,,0.34027,0.583326667,2,1
15,2,0.77,CS,1689,,0,0,2,1
15,3,0.55,CS,2353,,0.95978,0.979683622,2,1
15,4,0.3,CS,2142,,0,0,1,1
15,5,0.11,CS,1955,,0.37384,0.611424566,1,1
15,6,0.77,CS,1584,,0,0,2,1
15,7,1,CS,2018,,0,0,2,1
15,8,1,CS,1981,,0.62408,0.789987342,2,1
15,9,0.3,CS,1738,,0,0,1,1
15,10,0.55,CSUS,3209,,0,0,2,1
15,11,0.77,CS,1708,,0,0,2,1
15,12,0.3,CS,1994,,0,0,1,1
15,13,0.55,CS,2642,,0.015259,0.123527325,2,1
15,14,0.11,CS,1748,,1.2543,1.119955356,1,1
15,15,0.11,CS,1600,,0.062561,0.25012197,1,1
15,16,0.11,CS,1676,,0,0,1,2
15,17,0.3,CS,4133,,0.40283,0.6346889,1,2
15,18,0.55,CSUS,2255,,0,0,2,2
15,19,0.77,CS,1476,,0,0,2,2
15,20,1,CS,1660,,0,0,2,2
15,21,0.11,CS,1506,,0,0,1,2
15,22,0.3,CS,1630,,0,0,1,2
15,23,0.55,CS,3046,,1.2466,1.116512427,2,2
15,24,0.77,CS,1642,,0,0,2,2
15,25,1,CS,1645,,0,0,2,2
15,26,0.3,CS,1871,,0,0,1,2
15,27,0.3,CS,1491,,0.30975,0.556551884,1,3
15,28,0.77,CS,1657,,0.20599,0.453861212,2,2
15,29,1,CS,1526,,0,0,2,2
15,30,0.11,CS,1630,,0,0,1,2
15,31,1,CS,1426,,0,0,2,3
15,32,0.11,CS,1607,,0.035095,0.187336595,1,3
15,33,0.55,CS,0,,0.75989,0.871716697,,2
15,34,0.77,CS,1600,,0,0,2,3
15,35,0.55,CSUS,2715,,0.23041,0.480010417,1,3
15,36,0.77,CS,1529,,0,0,2,3
15,37,0.77,CS,1569,,0,0,2,3
15,38,0.55,CS,1632,,0.59662,0.772411807,1,3
15,39,0.11,CS,1322,,0,0,1,3
15,40,1,CS,1411,,0,0,2,3
15,41,0.3,CS,1829,,0,0,1,3
15,42,0.55,CS,2207,,0,0,2,3
15,43,0.3,CS,1646,,0,0,1,3
15,44,1,CS,1664,,0,0,2,3
15,45,0.11,CS,1541,,0,0,1,3
16,1,0.77,CS,657,,0.10223,0.319734265,2,1
16,2,0.11,CS,585,,0,0,1,1
16,3,0.3,CS,797,,0,0,1,1
16,4,0.55,CS,754,,0,0,2,1
16,5,1,CS,698,,0.93231,0.965562013,2,1
16,6,0.11,CS,849,,0,0,1,1
16,7,0.11,CS,818,,0,0,1,1
16,8,0.3,CS,943,,0,0,1,1
16,9,0.77,CS,656,,0,0,2,1
16,10,1,CS,759,,0,0,2,1
16,11,1,CS,834,,0,0,2,1
16,12,0.3,CS,801,,0,0,1,1
16,13,0.55,CS,1158,,0.13428,0.366442356,1,1
16,14,0.55,CSUS,965,,0,0,2,1
16,15,0.77,CS,598,,0,0,2,1
16,16,0.11,CS,729,,0,0,1,2
16,17,0.3,CS,930,,0,0,1,2
16,18,0.55,CSUS,1118,,0,0,2,2
16,19,0.77,CS,714,,0,0,2,2
16,20,1,CS,561,,0,0,2,2
16,21,0.11,CS,589,,0,0,1,2
16,22,0.3,CS,707,,0,0,1,2
16,23,0.55,CS,824,,0.30365,0.551044463,2,2
16,24,0.77,CS,626,,0,0,2,2
16,25,1,CS,703,,0,0,2,2
16,26,0.77,CS,730,,0,0,2,2
16,27,1,CS,674,,0,0,2,2
16,28,0.3,CS,779,,0,0,1,2
16,29,0.55,CS,1009,,0,0,2,2
16,30,0.11,CS,751,,0,0,1,2
16,31,0.55,CSUS,640,,0,0,2,3
16,32,0.3,CS,1135,,0,0,1,3
16,33,0.77,CS,852,,0,0,2,3
16,34,1,CS,666,,0,0,2,3
16,35,0.11,CS,818,,0,0,1,3
16,36,0.3,CS,892,,0,0,1,3
16,37,0.55,CS,917,,0,0,2,3
16,38,0.3,CS,1160,,0,0,1,3
16,39,0.77,CS,639,,0,0,2,3
16,40,0.77,CS,702,,0,0,2,3
16,41,1,CS,627,,0,0,2,3
16,42,0.11,CS,756,,0,0,1,3
16,43,0.11,CS,712,,0,0,1,3
16,44,0.55,CS,861,,0,0,2,3
16,45,1,CS,604,,0,0,2,3
17,1,0.55,CS,950,,0.32349,0.568761813,2,1
17,2,0.3,CS,1866,,0,0,1,1
17,3,1,CS,956,,0,0,2,1
17,4,0.11,CS,829,,0,0,1,1
17,5,0.77,CS,676,,0,0,2,1
17,6,0.3,CS,836,,0,0,1,1
17,7,1,CS,721,,0,0,2,1
17,8,1,CS,631,,0,0,2,1
17,9,0.11,CS,754,,0,0,1,1
17,10,0.77,CS,694,,0,0,2,1
17,11,0.11,CS,695,,0,0,1,1
17,12,0.55,CS,1202,,0,0,1,1
17,13,0.55,CSUS,1131,,0,0,1,1
17,14,0.77,CS,681,,0,0,2,1
17,15,0.3,CS,861,,0,0,1,1
17,16,0.11,CS,828,,0,0,1,2
17,17,0.3,CS,992,,0,0,1,2
17,18,0.55,CSUS,806,,0,0,2,2
17,19,0.77,CS,1051,,0,0,2,2
17,20,1,CS,748,,0,0,2,2
17,21,0.11,CS,744,,0,0,1,2
17,22,0.3,CS,891,,0,0,1,2
17,23,0.55,CS,1141,,0.19226,0.438474629,1,2
17,24,0.77,CS,716,,0,0,2,2
17,25,1,CS,672,,0,0,2,2
17,26,0.77,CS,1037,,0,0,2,2
17,27,0.11,CS,989,,0,0,1,2
17,28,0.77,CS,734,,0,0,2,3
17,29,0.3,CS,834,,0,0,1,2
17,30,1,CS,789,,0,0,2,2
17,31,0.55,CS,1082,,0,0,1,2
17,32,1,CS,726,,0,0,2,3
17,33,0.11,CS,694,,0,0,1,3
17,34,0.3,CS,757,,0,0,1,3
17,35,0.55,CSUS,1246,,0,0,1,3
17,36,1,CS,754,,0,0,2,3
17,37,0.3,CS,1362,,0,0,1,3
17,38,0.77,CS,942,,0,0,2,3
17,39,0.3,CS,912,,0,0,1,3
17,40,0.55,CS,1358,,0,0,1,3
17,41,0.77,CS,804,,0,0,2,3
17,42,0.55,CS,1057,,0,0,1,3
17,43,0.11,CS,786,,0,0,1,3
17,44,1,CS,709,,0,0,2,3
17,45,0.11,CS,838,,0,0,1,3
18,1,0.3,CS,876,,1.4313,1.196369508,1,1
18,2,0.55,CS,857,,2.3544,1.534405422,2,1
18,3,0.77,CS,804,,1.7761,1.332704018,2,1
18,4,0.11,CS,667,,1.4725,1.21346611,1,1
18,5,1,CS,1394,,1.5808,1.257298692,2,1
18,6,0.77,CS,1164,,0,0,2,1
18,7,0.55,CSUS,974,,0,0,1,1
18,8,0.55,CS,1122,,0,0,2,1
18,9,0.11,CS,1147,,1.7929,1.338992158,1,1
18,10,0.11,CS,1296,,0,0,1,1
18,11,0.77,CS,945,,1.0422,1.020881972,2,1
18,12,0.3,CS,907,,1.3123,1.145556633,1,1
18,13,1,CS,1367,,1.532,1.237739876,2,1
18,14,0.3,CS,669,,0,0,1,1
18,15,1,CS,642,,0,0,2,1
18,16,0.11,CS,494,,0.81329,0.901825926,1,2
18,17,0.3,CS,672,,1.4023,1.184187485,1,2
18,18,0.55,CSUS,1542,,2.349,1.532644773,2,2
18,19,0.77,CS,1229,,0,0,2,2
18,20,1,CS,816,,0.30365,0.551044463,2,2
18,21,0.11,CS,584,,0.37842,0.615158516,1,2
18,22,0.3,CS,699,,0,0,1,2
18,23,0.55,CS,829,,2.4216,1.556149093,2,2
18,24,0.77,CS,1456,,2.6276,1.620987353,2,2
18,25,1,CS,1054,,0,0,2,2
18,26,0.3,CS,724,,1.2711,1.127430707,1,2
18,27,0.55,CSUS,1211,,0,0,2,2
18,28,0.3,CS,647,,0,0,1,3
18,29,0.55,CS,1558,,2.0187,1.420809628,2,3
18,30,0.11,CS,647,,0,0,1,2
18,31,1,CS,1205,,0,0,2,2
18,32,0.77,CS,1407,,1.5869,1.259722192,2,2
18,33,1,CS,980,,1.741,1.31946959,2,3
18,34,0.11,CS,819,,0,0,1,3
18,35,0.77,CS,764,,0,0,2,3
18,36,0.11,CS,828,,0,0,1,3
18,37,0.3,CS,595,,0,0,1,3
18,38,0.55,CS,1390,,5.8502,2.418718669,2,3
18,39,0.11,CS,874,,0,0,1,3
18,40,0.77,CS,1036,,0.53711,0.732877889,2,3
18,41,0.55,CS,1048,,1.9104,1.382172203,2,3
18,42,0.77,CS,947,,0,0,2,3
18,43,1,CS,787,,1.7426,1.320075755,2,3
18,44,0.3,CS,1042,,1.5427,1.242054749,1,3
18,45,1,CS,832,,0,0,2,3
19,1,0.3,CS,3781,,1.2634,1.124010676,1,1
19,2,0.55,CS,1214,,0,0,2,1
19,3,0.11,CS,1571,,0,0,1,1
19,4,1,CS,1550,,1.1703,1.081804049,2,1
19,5,0.77,CS,1227,,1.5976,1.263962025,2,1
19,6,1,CS,1085,,0.24109,0.491009165,2,1
19,7,1,CS,1305,,0.24567,0.495651087,2,1
19,8,0.77,CS,1325,,0,0,2,1
19,9,0.55,CSUS,2576,,0,0,1,1
19,10,0.3,CS,1370,,0.12207,0.349385174,1,1
19,11,0.11,CS,1519,,0.45166,0.672056545,1,1
19,12,0.11,CS,1467,,0.53253,0.729746531,1,1
19,13,0.77,CS,1423,,0.52948,0.727653764,2,1
19,14,0.3,CS,1527,,0,0,1,1
19,15,0.55,CS,4081,,2.1622,1.47044211,2,1
19,16,0.11,CS,1213,,0,0,1,2
19,17,0.3,CS,1602,,0.10986,0.331451354,1,2
19,18,0.55,CSUS,1765,,3.735,1.932614809,2,2
19,19,0.77,CS,1393,,0,0,2,2
19,20,1,CS,1399,,0,0,2,2
19,21,0.11,CS,1382,,0,0,1,2
19,22,0.3,CS,2620,,0,0,1,2
19,23,0.55,CS,2070,,1.1902,1.090962877,2,2
19,24,0.77,CS,1445,,0.8606,0.927685291,2,2
19,25,1,CS,1452,,0,0,2,2
19,26,0.11,CS,1678,,0,0,1,2
19,27,1,CS,1320,,0.34943,0.591126044,2,2
19,28,0.3,CS,1621,,0,0,1,2
19,29,0.11,CS,1704,,0.030518,0.174694018,1,3
19,30,0.3,CS,0,,0.14191,0.376709437,,3
19,31,0.77,CS,1294,,1.1307,1.063343783,2,2
19,32,1,CS,1541,,0,0,2,3
19,33,0.77,CS,1653,,1.1002,1.04890419,2,3
19,34,0.55,CSUS,1614,,0.06,0.244948974,1,2
19,35,0.55,CS,2046,,0,0,2,3
19,36,0.77,CS,1297,,2.2217,1.490536816,2,3
19,37,1,CS,1150,,0,0,2,3
19,38,0.3,CS,1451,,0,0,1,3
19,39,0.11,CS,1416,,0,0,1,3
19,40,0.55,CS,2254,,3.2181,1.793906352,2,3
19,41,1,CS,1203,,0,0,2,3
19,42,0.55,CS,2979,,2.0111,1.418132575,1,3
19,43,0.77,CS,1301,,0,0,2,3
19,44,0.3,CS,1287,,3.4088,1.846293584,1,3
19,45,0.11,CS,1175,,1.6266,1.275382296,1,3
20,1,0.55,CS,1255,,0.35706,0.597544977,2,1
20,2,1,CS,1454,,0,0,2,1
20,3,0.77,CS,1378,,0.23804,0.487893431,2,1
20,4,0.3,CS,1326,,0.66376,0.814714674,1,1
20,5,0.11,CS,1712,,0.66833,0.817514526,1,1
20,6,0.55,CS,2758,,0,0,2,1
20,7,0.3,CS,1936,,0,0,1,1
20,8,0.11,CS,1650,,0.6424,0.801498596,1,1
20,9,1,CS,1494,,0.55389,0.744237865,2,1
20,10,0.77,CS,1796,,0.36316,0.60262758,2,1
20,11,1,CS,1246,,0.15259,0.3906277,2,1
20,12,0.77,CS,1536,,0,0,2,1
20,13,0.11,CS,1681,,0.23804,0.487893431,1,1
20,14,0.55,CSUS,2016,,0,0,2,1
20,15,0.3,CS,1954,,0,0,1,1
20,16,0.11,CS,1623,,0,0,1,2
20,17,0.3,CS,1729,,1.0422,1.020881972,1,2
20,18,0.55,CSUS,1333,,0.643,0.801872808,2,2
20,19,0.77,CS,1473,,0.21515,0.463842646,2,2
20,20,1,CS,1222,,0,0,2,2
20,21,0.11,CS,1197,,0.11902,0.344992754,1,2
20,22,0.3,CS,1621,,0.094604,0.307577632,1,2
20,23,0.55,CS,2093,,0.43335,0.658293248,2,2
20,24,0.77,CS,1437,,0,0,2,2
20,25,1,CS,1300,,0,0,2,2
20,26,1,CS,1610,,0,0,2,2
20,27,0.3,CS,1581,,0.49286,0.702039885,1,2
20,28,0.55,CSUS,2412,,0,0,2,2
20,29,0.11,CS,1252,,0,0,1,2
20,30,0.55,CS,1377,,0.33875,0.582022336,2,3
20,31,0.77,CS,1239,,0.085449,0.292316609,2,2
20,32,0.77,CS,1350,,0,0,2,3
20,33,0.3,CS,1659,,0,0,1,3
20,34,0.11,CS,1308,,0,0,1,3
20,35,1,CS,1643,,0,0,2,3
20,36,0.55,CS,1445,,1.3855,1.17707264,2,3
20,37,0.11,CS,1192,,0.72174,0.849552824,1,3
20,38,1,CS,1241,,0,0,2,3
20,39,0.77,CS,1411,,0,0,2,3
20,40,0.3,CS,1569,,0.66376,0.814714674,1,3
20,41,1,CS,1248,,0.17395,0.417073135,2,3
20,42,0.77,CS,1631,,0.083923,0.289694667,2,3
20,43,0.55,CS,1584,,0.26855,0.518218101,2,3
20,44,0.11,CS,1275,,0,0,1,3
20,45,0.3,CS,1427,,0,0,1,3